"STUDYID","DOMAIN","USUBJID","VSSEQ","VSTESTCD","VSTEST","VSPOS","VSORRES","VSORRESU","VSSTRESC","VSSTRESN","VSSTRESU","VSSTAT","VSLOC","VSBLFL","VISITNUM","VISIT","VISITDY","VSDTC","VSDY","VSTPT","VSTPTNUM","VSELTM","VSTPTREF"
"CDISCPILOT01","VS","01-701-1015",1,"DIABP","Diastolic Blood Pressure","SUPINE","64","mmHg","64",64,"mmHg",NA,NA,NA,1,"SCREENING 1",-7,"2013-12-26",-7,"AFTER LYING DOWN FOR 5 MINUTES",815,"PT5M","PATIENT SUPINE"
"CDISCPILOT01","VS","01-701-1015",2,"DIABP","Diastolic Blood Pressure","STANDING","83","mmHg","83",83,"mmHg",NA,NA,NA,1,"SCREENING 1",-7,"2013-12-26",-7,"AFTER STANDING FOR 1 MINUTE",816,"PT1M","PATIENT STANDING"
"CDISCPILOT01","VS","01-701-1015",3,"DIABP","Diastolic Blood Pressure","STANDING","57","mmHg","57",57,"mmHg",NA,NA,NA,1,"SCREENING 1",-7,"2013-12-26",-7,"AFTER STANDING FOR 3 MINUTES",817,"PT3M","PATIENT STANDING"
"CDISCPILOT01","VS","01-701-1015",4,"DIABP","Diastolic Blood Pressure","SUPINE","68","mmHg","68",68,"mmHg",NA,NA,NA,2,"SCREENING 2",-1,"2013-12-31",-2,"AFTER LYING DOWN FOR 5 MINUTES",815,"PT5M","PATIENT SUPINE"
"CDISCPILOT01","VS","01-701-1015",5,"DIABP","Diastolic Blood Pressure","STANDING","59","mmHg","59",59,"mmHg",NA,NA,NA,2,"SCREENING 2",-1,"2013-12-31",-2,"AFTER STANDING FOR 1 MINUTE",816,"PT1M","PATIENT STANDING"
"CDISCPILOT01","VS","01-701-1015",6,"DIABP","Diastolic Blood Pressure","STANDING","71","mmHg","71",71,"mmHg",NA,NA,NA,2,"SCREENING 2",-1,"2013-12-31",-2,"AFTER STANDING FOR 3 MINUTES",817,"PT3M","PATIENT STANDING"
"CDISCPILOT01","VS","01-701-1015",7,"DIABP","Diastolic Blood Pressure","SUPINE","56","mmHg","56",56,"mmHg",NA,NA,"Y",3,"BASELINE",1,"2014-01-02",1,"AFTER LYING DOWN FOR 5 MINUTES",815,"PT5M","PATIENT SUPINE"
"CDISCPILOT01","VS","01-701-1015",8,"DIABP","Diastolic Blood Pressure","STANDING","51","mmHg","51",51,"mmHg",NA,NA,"Y",3,"BASELINE",1,"2014-01-02",1,"AFTER STANDING FOR 1 MINUTE",816,"PT1M","PATIENT STANDING"
"CDISCPILOT01","VS","01-701-1015",9,"DIABP","Diastolic Blood Pressure","STANDING","61","mmHg","61",61,"mmHg",NA,NA,"Y",3,"BASELINE",1,"2014-01-02",1,"AFTER STANDING FOR 3 MINUTES",817,"PT3M","PATIENT STANDING"
"CDISCPILOT01","VS","01-701-1015",10,"DIABP","Diastolic Blood Pressure","SUPINE","67","mmHg","67",67,"mmHg",NA,NA,NA,3.5,"AMBUL ECG PLACEMENT",13,"2014-01-14",13,"AFTER LYING DOWN FOR 5 MINUTES",815,"PT5M","PATIENT SUPINE"
"CDISCPILOT01","VS","01-701-1015",11,"DIABP","Diastolic Blood Pressure","STANDING","61","mmHg","61",61,"mmHg",NA,NA,NA,3.5,"AMBUL ECG PLACEMENT",13,"2014-01-14",13,"AFTER STANDING FOR 1 MINUTE",816,"PT1M","PATIENT STANDING"
"CDISCPILOT01","VS","01-701-1015",12,"DIABP","Diastolic Blood Pressure","STANDING","65","mmHg","65",65,"mmHg",NA,NA,NA,3.5,"AMBUL ECG PLACEMENT",13,"2014-01-14",13,"AFTER STANDING FOR 3 MINUTES",817,"PT3M","PATIENT STANDING"
"CDISCPILOT01","VS","01-701-1015",13,"DIABP","Diastolic Blood Pressure","SUPINE","56","mmHg","56",56,"mmHg",NA,NA,NA,4,"WEEK 2",14,"2014-01-16",15,"AFTER LYING DOWN FOR 5 MINUTES",815,"PT5M","PATIENT SUPINE"
"CDISCPILOT01","VS","01-701-1015",14,"DIABP","Diastolic Blood Pressure","STANDING","50","mmHg","50",50,"mmHg",NA,NA,NA,4,"WEEK 2",14,"2014-01-16",15,"AFTER STANDING FOR 1 MINUTE",816,"PT1M","PATIENT STANDING"
"CDISCPILOT01","VS","01-701-1015",15,"DIABP","Diastolic Blood Pressure","STANDING","54","mmHg","54",54,"mmHg",NA,NA,NA,4,"WEEK 2",14,"2014-01-16",15,"AFTER STANDING FOR 3 MINUTES",817,"PT3M","PATIENT STANDING"
"CDISCPILOT01","VS","01-701-1015",16,"DIABP","Diastolic Blood Pressure","SUPINE","64","mmHg","64",64,"mmHg",NA,NA,NA,5,"WEEK 4",28,"2014-01-30",29,"AFTER LYING DOWN FOR 5 MINUTES",815,"PT5M","PATIENT SUPINE"
"CDISCPILOT01","VS","01-701-1015",17,"DIABP","Diastolic Blood Pressure","STANDING","55","mmHg","55",55,"mmHg",NA,NA,NA,5,"WEEK 4",28,"2014-01-30",29,"AFTER STANDING FOR 1 MINUTE",816,"PT1M","PATIENT STANDING"
"CDISCPILOT01","VS","01-701-1015",18,"DIABP","Diastolic Blood Pressure","STANDING","53","mmHg","53",53,"mmHg",NA,NA,NA,5,"WEEK 4",28,"2014-01-30",29,"AFTER STANDING FOR 3 MINUTES",817,"PT3M","PATIENT STANDING"
"CDISCPILOT01","VS","01-701-1015",19,"DIABP","Diastolic Blood Pressure","SUPINE","72","mmHg","72",72,"mmHg",NA,NA,NA,6,"AMBUL ECG REMOVAL",30,"2014-02-01",31,"AFTER LYING DOWN FOR 5 MINUTES",815,"PT5M","PATIENT SUPINE"
"CDISCPILOT01","VS","01-701-1015",20,"DIABP","Diastolic Blood Pressure","STANDING","61","mmHg","61",61,"mmHg",NA,NA,NA,6,"AMBUL ECG REMOVAL",30,"2014-02-01",31,"AFTER STANDING FOR 1 MINUTE",816,"PT1M","PATIENT STANDING"
"CDISCPILOT01","VS","01-701-1015",21,"DIABP","Diastolic Blood Pressure","STANDING","53","mmHg","53",53,"mmHg",NA,NA,NA,6,"AMBUL ECG REMOVAL",30,"2014-02-01",31,"AFTER STANDING FOR 3 MINUTES",817,"PT3M","PATIENT STANDING"
"CDISCPILOT01","VS","01-701-1015",22,"DIABP","Diastolic Blood Pressure","SUPINE","55","mmHg","55",55,"mmHg",NA,NA,NA,7,"WEEK 6",42,"2014-02-12",42,"AFTER LYING DOWN FOR 5 MINUTES",815,"PT5M","PATIENT SUPINE"
"CDISCPILOT01","VS","01-701-1015",23,"DIABP","Diastolic Blood Pressure","STANDING","63","mmHg","63",63,"mmHg",NA,NA,NA,7,"WEEK 6",42,"2014-02-12",42,"AFTER STANDING FOR 1 MINUTE",816,"PT1M","PATIENT STANDING"
"CDISCPILOT01","VS","01-701-1015",24,"DIABP","Diastolic Blood Pressure","STANDING","60","mmHg","60",60,"mmHg",NA,NA,NA,7,"WEEK 6",42,"2014-02-12",42,"AFTER STANDING FOR 3 MINUTES",817,"PT3M","PATIENT STANDING"
"CDISCPILOT01","VS","01-701-1015",25,"DIABP","Diastolic Blood Pressure","SUPINE","67","mmHg","67",67,"mmHg",NA,NA,NA,8,"WEEK 8",56,"2014-03-05",63,"AFTER LYING DOWN FOR 5 MINUTES",815,"PT5M","PATIENT SUPINE"
"CDISCPILOT01","VS","01-701-1015",26,"DIABP","Diastolic Blood Pressure","STANDING","62","mmHg","62",62,"mmHg",NA,NA,NA,8,"WEEK 8",56,"2014-03-05",63,"AFTER STANDING FOR 1 MINUTE",816,"PT1M","PATIENT STANDING"
"CDISCPILOT01","VS","01-701-1015",27,"DIABP","Diastolic Blood Pressure","STANDING","71","mmHg","71",71,"mmHg",NA,NA,NA,8,"WEEK 8",56,"2014-03-05",63,"AFTER STANDING FOR 3 MINUTES",817,"PT3M","PATIENT STANDING"
"CDISCPILOT01","VS","01-701-1015",28,"DIABP","Diastolic Blood Pressure","SUPINE","68","mmHg","68",68,"mmHg",NA,NA,NA,9,"WEEK 12",84,"2014-03-26",84,"AFTER LYING DOWN FOR 5 MINUTES",815,"PT5M","PATIENT SUPINE"
"CDISCPILOT01","VS","01-701-1015",29,"DIABP","Diastolic Blood Pressure","STANDING","60","mmHg","60",60,"mmHg",NA,NA,NA,9,"WEEK 12",84,"2014-03-26",84,"AFTER STANDING FOR 1 MINUTE",816,"PT1M","PATIENT STANDING"
"CDISCPILOT01","VS","01-701-1015",30,"DIABP","Diastolic Blood Pressure","STANDING","64","mmHg","64",64,"mmHg",NA,NA,NA,9,"WEEK 12",84,"2014-03-26",84,"AFTER STANDING FOR 3 MINUTES",817,"PT3M","PATIENT STANDING"
"CDISCPILOT01","VS","01-701-1015",31,"DIABP","Diastolic Blood Pressure","SUPINE","66","mmHg","66",66,"mmHg",NA,NA,NA,10,"WEEK 16",112,"2014-05-07",126,"AFTER LYING DOWN FOR 5 MINUTES",815,"PT5M","PATIENT SUPINE"
"CDISCPILOT01","VS","01-701-1015",32,"DIABP","Diastolic Blood Pressure","STANDING","68","mmHg","68",68,"mmHg",NA,NA,NA,10,"WEEK 16",112,"2014-05-07",126,"AFTER STANDING FOR 1 MINUTE",816,"PT1M","PATIENT STANDING"
"CDISCPILOT01","VS","01-701-1015",33,"DIABP","Diastolic Blood Pressure","STANDING","66","mmHg","66",66,"mmHg",NA,NA,NA,10,"WEEK 16",112,"2014-05-07",126,"AFTER STANDING FOR 3 MINUTES",817,"PT3M","PATIENT STANDING"
"CDISCPILOT01","VS","01-701-1015",34,"DIABP","Diastolic Blood Pressure","SUPINE","67","mmHg","67",67,"mmHg",NA,NA,NA,11,"WEEK 20",140,"2014-05-21",140,"AFTER LYING DOWN FOR 5 MINUTES",815,"PT5M","PATIENT SUPINE"
"CDISCPILOT01","VS","01-701-1015",35,"DIABP","Diastolic Blood Pressure","STANDING","65","mmHg","65",65,"mmHg",NA,NA,NA,11,"WEEK 20",140,"2014-05-21",140,"AFTER STANDING FOR 1 MINUTE",816,"PT1M","PATIENT STANDING"
"CDISCPILOT01","VS","01-701-1015",36,"DIABP","Diastolic Blood Pressure","STANDING","63","mmHg","63",63,"mmHg",NA,NA,NA,11,"WEEK 20",140,"2014-05-21",140,"AFTER STANDING FOR 3 MINUTES",817,"PT3M","PATIENT STANDING"
"CDISCPILOT01","VS","01-701-1015",37,"DIABP","Diastolic Blood Pressure","SUPINE","63","mmHg","63",63,"mmHg",NA,NA,NA,12,"WEEK 24",168,"2014-06-18",168,"AFTER LYING DOWN FOR 5 MINUTES",815,"PT5M","PATIENT SUPINE"
"CDISCPILOT01","VS","01-701-1015",38,"DIABP","Diastolic Blood Pressure","STANDING","57","mmHg","57",57,"mmHg",NA,NA,NA,12,"WEEK 24",168,"2014-06-18",168,"AFTER STANDING FOR 1 MINUTE",816,"PT1M","PATIENT STANDING"
"CDISCPILOT01","VS","01-701-1015",39,"DIABP","Diastolic Blood Pressure","STANDING","71","mmHg","71",71,"mmHg",NA,NA,NA,12,"WEEK 24",168,"2014-06-18",168,"AFTER STANDING FOR 3 MINUTES",817,"PT3M","PATIENT STANDING"
"CDISCPILOT01","VS","01-701-1015",40,"DIABP","Diastolic Blood Pressure","SUPINE","61","mmHg","61",61,"mmHg",NA,NA,NA,13,"WEEK 26",182,"2014-07-02",182,"AFTER LYING DOWN FOR 5 MINUTES",815,"PT5M","PATIENT SUPINE"
"CDISCPILOT01","VS","01-701-1015",41,"DIABP","Diastolic Blood Pressure","STANDING","59","mmHg","59",59,"mmHg",NA,NA,NA,13,"WEEK 26",182,"2014-07-02",182,"AFTER STANDING FOR 1 MINUTE",816,"PT1M","PATIENT STANDING"
"CDISCPILOT01","VS","01-701-1015",42,"DIABP","Diastolic Blood Pressure","STANDING","55","mmHg","55",55,"mmHg",NA,NA,NA,13,"WEEK 26",182,"2014-07-02",182,"AFTER STANDING FOR 3 MINUTES",817,"PT3M","PATIENT STANDING"
"CDISCPILOT01","VS","01-701-1015",43,"HEIGHT","Height",NA,"58.0","IN","147.32",147.32,"cm",NA,NA,NA,1,"SCREENING 1",-7,"2013-12-26",-7,NA,NA,NA,NA
"CDISCPILOT01","VS","01-701-1015",44,"PULSE","Pulse Rate","SUPINE","57","BEATS/MIN","57",57,"BEATS/MIN",NA,NA,NA,1,"SCREENING 1",-7,"2013-12-26",-7,"AFTER LYING DOWN FOR 5 MINUTES",815,"PT5M","PATIENT SUPINE"
"CDISCPILOT01","VS","01-701-1015",45,"PULSE","Pulse Rate","STANDING","62","BEATS/MIN","62",62,"BEATS/MIN",NA,NA,NA,1,"SCREENING 1",-7,"2013-12-26",-7,"AFTER STANDING FOR 1 MINUTE",816,"PT1M","PATIENT STANDING"
"CDISCPILOT01","VS","01-701-1015",46,"PULSE","Pulse Rate","STANDING","65","BEATS/MIN","65",65,"BEATS/MIN",NA,NA,NA,1,"SCREENING 1",-7,"2013-12-26",-7,"AFTER STANDING FOR 3 MINUTES",817,"PT3M","PATIENT STANDING"
"CDISCPILOT01","VS","01-701-1015",47,"PULSE","Pulse Rate","SUPINE","56","BEATS/MIN","56",56,"BEATS/MIN",NA,NA,NA,2,"SCREENING 2",-1,"2013-12-31",-2,"AFTER LYING DOWN FOR 5 MINUTES",815,"PT5M","PATIENT SUPINE"
"CDISCPILOT01","VS","01-701-1015",48,"PULSE","Pulse Rate","STANDING","60","BEATS/MIN","60",60,"BEATS/MIN",NA,NA,NA,2,"SCREENING 2",-1,"2013-12-31",-2,"AFTER STANDING FOR 1 MINUTE",816,"PT1M","PATIENT STANDING"
"CDISCPILOT01","VS","01-701-1015",49,"PULSE","Pulse Rate","STANDING","57","BEATS/MIN","57",57,"BEATS/MIN",NA,NA,NA,2,"SCREENING 2",-1,"2013-12-31",-2,"AFTER STANDING FOR 3 MINUTES",817,"PT3M","PATIENT STANDING"
"CDISCPILOT01","VS","01-701-1015",50,"PULSE","Pulse Rate","SUPINE","56","BEATS/MIN","56",56,"BEATS/MIN",NA,NA,"Y",3,"BASELINE",1,"2014-01-02",1,"AFTER LYING DOWN FOR 5 MINUTES",815,"PT5M","PATIENT SUPINE"
"CDISCPILOT01","VS","01-701-1015",51,"PULSE","Pulse Rate","STANDING","59","BEATS/MIN","59",59,"BEATS/MIN",NA,NA,"Y",3,"BASELINE",1,"2014-01-02",1,"AFTER STANDING FOR 1 MINUTE",816,"PT1M","PATIENT STANDING"
"CDISCPILOT01","VS","01-701-1015",52,"PULSE","Pulse Rate","STANDING","59","BEATS/MIN","59",59,"BEATS/MIN",NA,NA,"Y",3,"BASELINE",1,"2014-01-02",1,"AFTER STANDING FOR 3 MINUTES",817,"PT3M","PATIENT STANDING"
"CDISCPILOT01","VS","01-701-1015",53,"PULSE","Pulse Rate","SUPINE","61","BEATS/MIN","61",61,"BEATS/MIN",NA,NA,NA,3.5,"AMBUL ECG PLACEMENT",13,"2014-01-14",13,"AFTER LYING DOWN FOR 5 MINUTES",815,"PT5M","PATIENT SUPINE"
"CDISCPILOT01","VS","01-701-1015",54,"PULSE","Pulse Rate","STANDING","65","BEATS/MIN","65",65,"BEATS/MIN",NA,NA,NA,3.5,"AMBUL ECG PLACEMENT",13,"2014-01-14",13,"AFTER STANDING FOR 1 MINUTE",816,"PT1M","PATIENT STANDING"
"CDISCPILOT01","VS","01-701-1015",55,"PULSE","Pulse Rate","STANDING","61","BEATS/MIN","61",61,"BEATS/MIN",NA,NA,NA,3.5,"AMBUL ECG PLACEMENT",13,"2014-01-14",13,"AFTER STANDING FOR 3 MINUTES",817,"PT3M","PATIENT STANDING"
"CDISCPILOT01","VS","01-701-1015",56,"PULSE","Pulse Rate","SUPINE","58","BEATS/MIN","58",58,"BEATS/MIN",NA,NA,NA,4,"WEEK 2",14,"2014-01-16",15,"AFTER LYING DOWN FOR 5 MINUTES",815,"PT5M","PATIENT SUPINE"
"CDISCPILOT01","VS","01-701-1015",57,"PULSE","Pulse Rate","STANDING","61","BEATS/MIN","61",61,"BEATS/MIN",NA,NA,NA,4,"WEEK 2",14,"2014-01-16",15,"AFTER STANDING FOR 1 MINUTE",816,"PT1M","PATIENT STANDING"
"CDISCPILOT01","VS","01-701-1015",58,"PULSE","Pulse Rate","STANDING","62","BEATS/MIN","62",62,"BEATS/MIN",NA,NA,NA,4,"WEEK 2",14,"2014-01-16",15,"AFTER STANDING FOR 3 MINUTES",817,"PT3M","PATIENT STANDING"
"CDISCPILOT01","VS","01-701-1015",59,"PULSE","Pulse Rate","SUPINE","59","BEATS/MIN","59",59,"BEATS/MIN",NA,NA,NA,5,"WEEK 4",28,"2014-01-30",29,"AFTER LYING DOWN FOR 5 MINUTES",815,"PT5M","PATIENT SUPINE"
"CDISCPILOT01","VS","01-701-1015",60,"PULSE","Pulse Rate","STANDING","62","BEATS/MIN","62",62,"BEATS/MIN",NA,NA,NA,5,"WEEK 4",28,"2014-01-30",29,"AFTER STANDING FOR 1 MINUTE",816,"PT1M","PATIENT STANDING"
"CDISCPILOT01","VS","01-701-1015",61,"PULSE","Pulse Rate","STANDING","59","BEATS/MIN","59",59,"BEATS/MIN",NA,NA,NA,5,"WEEK 4",28,"2014-01-30",29,"AFTER STANDING FOR 3 MINUTES",817,"PT3M","PATIENT STANDING"
"CDISCPILOT01","VS","01-701-1015",62,"PULSE","Pulse Rate","SUPINE","67","BEATS/MIN","67",67,"BEATS/MIN",NA,NA,NA,6,"AMBUL ECG REMOVAL",30,"2014-02-01",31,"AFTER LYING DOWN FOR 5 MINUTES",815,"PT5M","PATIENT SUPINE"
"CDISCPILOT01","VS","01-701-1015",63,"PULSE","Pulse Rate","STANDING","69","BEATS/MIN","69",69,"BEATS/MIN",NA,NA,NA,6,"AMBUL ECG REMOVAL",30,"2014-02-01",31,"AFTER STANDING FOR 1 MINUTE",816,"PT1M","PATIENT STANDING"
"CDISCPILOT01","VS","01-701-1015",64,"PULSE","Pulse Rate","STANDING","65","BEATS/MIN","65",65,"BEATS/MIN",NA,NA,NA,6,"AMBUL ECG REMOVAL",30,"2014-02-01",31,"AFTER STANDING FOR 3 MINUTES",817,"PT3M","PATIENT STANDING"
"CDISCPILOT01","VS","01-701-1015",65,"PULSE","Pulse Rate","SUPINE","55","BEATS/MIN","55",55,"BEATS/MIN",NA,NA,NA,7,"WEEK 6",42,"2014-02-12",42,"AFTER LYING DOWN FOR 5 MINUTES",815,"PT5M","PATIENT SUPINE"
"CDISCPILOT01","VS","01-701-1015",66,"PULSE","Pulse Rate","STANDING","56","BEATS/MIN","56",56,"BEATS/MIN",NA,NA,NA,7,"WEEK 6",42,"2014-02-12",42,"AFTER STANDING FOR 1 MINUTE",816,"PT1M","PATIENT STANDING"
"CDISCPILOT01","VS","01-701-1015",67,"PULSE","Pulse Rate","STANDING","57","BEATS/MIN","57",57,"BEATS/MIN",NA,NA,NA,7,"WEEK 6",42,"2014-02-12",42,"AFTER STANDING FOR 3 MINUTES",817,"PT3M","PATIENT STANDING"
"CDISCPILOT01","VS","01-701-1015",68,"PULSE","Pulse Rate","SUPINE","57","BEATS/MIN","57",57,"BEATS/MIN",NA,NA,NA,8,"WEEK 8",56,"2014-03-05",63,"AFTER LYING DOWN FOR 5 MINUTES",815,"PT5M","PATIENT SUPINE"
"CDISCPILOT01","VS","01-701-1015",69,"PULSE","Pulse Rate","STANDING","60","BEATS/MIN","60",60,"BEATS/MIN",NA,NA,NA,8,"WEEK 8",56,"2014-03-05",63,"AFTER STANDING FOR 1 MINUTE",816,"PT1M","PATIENT STANDING"
"CDISCPILOT01","VS","01-701-1015",70,"PULSE","Pulse Rate","STANDING","57","BEATS/MIN","57",57,"BEATS/MIN",NA,NA,NA,8,"WEEK 8",56,"2014-03-05",63,"AFTER STANDING FOR 3 MINUTES",817,"PT3M","PATIENT STANDING"
"CDISCPILOT01","VS","01-701-1015",71,"PULSE","Pulse Rate","SUPINE","54","BEATS/MIN","54",54,"BEATS/MIN",NA,NA,NA,9,"WEEK 12",84,"2014-03-26",84,"AFTER LYING DOWN FOR 5 MINUTES",815,"PT5M","PATIENT SUPINE"
"CDISCPILOT01","VS","01-701-1015",72,"PULSE","Pulse Rate","STANDING","53","BEATS/MIN","53",53,"BEATS/MIN",NA,NA,NA,9,"WEEK 12",84,"2014-03-26",84,"AFTER STANDING FOR 1 MINUTE",816,"PT1M","PATIENT STANDING"
"CDISCPILOT01","VS","01-701-1015",73,"PULSE","Pulse Rate","STANDING","52","BEATS/MIN","52",52,"BEATS/MIN",NA,NA,NA,9,"WEEK 12",84,"2014-03-26",84,"AFTER STANDING FOR 3 MINUTES",817,"PT3M","PATIENT STANDING"
"CDISCPILOT01","VS","01-701-1015",74,"PULSE","Pulse Rate","SUPINE","60","BEATS/MIN","60",60,"BEATS/MIN",NA,NA,NA,10,"WEEK 16",112,"2014-05-07",126,"AFTER LYING DOWN FOR 5 MINUTES",815,"PT5M","PATIENT SUPINE"
"CDISCPILOT01","VS","01-701-1015",75,"PULSE","Pulse Rate","STANDING","55","BEATS/MIN","55",55,"BEATS/MIN",NA,NA,NA,10,"WEEK 16",112,"2014-05-07",126,"AFTER STANDING FOR 1 MINUTE",816,"PT1M","PATIENT STANDING"
"CDISCPILOT01","VS","01-701-1015",76,"PULSE","Pulse Rate","STANDING","61","BEATS/MIN","61",61,"BEATS/MIN",NA,NA,NA,10,"WEEK 16",112,"2014-05-07",126,"AFTER STANDING FOR 3 MINUTES",817,"PT3M","PATIENT STANDING"
"CDISCPILOT01","VS","01-701-1015",77,"PULSE","Pulse Rate","SUPINE","54","BEATS/MIN","54",54,"BEATS/MIN",NA,NA,NA,11,"WEEK 20",140,"2014-05-21",140,"AFTER LYING DOWN FOR 5 MINUTES",815,"PT5M","PATIENT SUPINE"
"CDISCPILOT01","VS","01-701-1015",78,"PULSE","Pulse Rate","STANDING","59","BEATS/MIN","59",59,"BEATS/MIN",NA,NA,NA,11,"WEEK 20",140,"2014-05-21",140,"AFTER STANDING FOR 1 MINUTE",816,"PT1M","PATIENT STANDING"
"CDISCPILOT01","VS","01-701-1015",79,"PULSE","Pulse Rate","STANDING","58","BEATS/MIN","58",58,"BEATS/MIN",NA,NA,NA,11,"WEEK 20",140,"2014-05-21",140,"AFTER STANDING FOR 3 MINUTES",817,"PT3M","PATIENT STANDING"
"CDISCPILOT01","VS","01-701-1015",80,"PULSE","Pulse Rate","SUPINE","55","BEATS/MIN","55",55,"BEATS/MIN",NA,NA,NA,12,"WEEK 24",168,"2014-06-18",168,"AFTER LYING DOWN FOR 5 MINUTES",815,"PT5M","PATIENT SUPINE"
"CDISCPILOT01","VS","01-701-1015",81,"PULSE","Pulse Rate","STANDING","57","BEATS/MIN","57",57,"BEATS/MIN",NA,NA,NA,12,"WEEK 24",168,"2014-06-18",168,"AFTER STANDING FOR 1 MINUTE",816,"PT1M","PATIENT STANDING"
"CDISCPILOT01","VS","01-701-1015",82,"PULSE","Pulse Rate","STANDING","56","BEATS/MIN","56",56,"BEATS/MIN",NA,NA,NA,12,"WEEK 24",168,"2014-06-18",168,"AFTER STANDING FOR 3 MINUTES",817,"PT3M","PATIENT STANDING"
"CDISCPILOT01","VS","01-701-1015",83,"PULSE","Pulse Rate","SUPINE","60","BEATS/MIN","60",60,"BEATS/MIN",NA,NA,NA,13,"WEEK 26",182,"2014-07-02",182,"AFTER LYING DOWN FOR 5 MINUTES",815,"PT5M","PATIENT SUPINE"
"CDISCPILOT01","VS","01-701-1015",84,"PULSE","Pulse Rate","STANDING","61","BEATS/MIN","61",61,"BEATS/MIN",NA,NA,NA,13,"WEEK 26",182,"2014-07-02",182,"AFTER STANDING FOR 1 MINUTE",816,"PT1M","PATIENT STANDING"
"CDISCPILOT01","VS","01-701-1015",85,"PULSE","Pulse Rate","STANDING","59","BEATS/MIN","59",59,"BEATS/MIN",NA,NA,NA,13,"WEEK 26",182,"2014-07-02",182,"AFTER STANDING FOR 3 MINUTES",817,"PT3M","PATIENT STANDING"
"CDISCPILOT01","VS","01-701-1015",86,"SYSBP","Systolic Blood Pressure","SUPINE","131","mmHg","131",131,"mmHg",NA,NA,NA,1,"SCREENING 1",-7,"2013-12-26",-7,"AFTER LYING DOWN FOR 5 MINUTES",815,"PT5M","PATIENT SUPINE"
"CDISCPILOT01","VS","01-701-1015",87,"SYSBP","Systolic Blood Pressure","STANDING","129","mmHg","129",129,"mmHg",NA,NA,NA,1,"SCREENING 1",-7,"2013-12-26",-7,"AFTER STANDING FOR 1 MINUTE",816,"PT1M","PATIENT STANDING"
"CDISCPILOT01","VS","01-701-1015",88,"SYSBP","Systolic Blood Pressure","STANDING","147","mmHg","147",147,"mmHg",NA,NA,NA,1,"SCREENING 1",-7,"2013-12-26",-7,"AFTER STANDING FOR 3 MINUTES",817,"PT3M","PATIENT STANDING"
"CDISCPILOT01","VS","01-701-1015",89,"SYSBP","Systolic Blood Pressure","SUPINE","138","mmHg","138",138,"mmHg",NA,NA,NA,2,"SCREENING 2",-1,"2013-12-31",-2,"AFTER LYING DOWN FOR 5 MINUTES",815,"PT5M","PATIENT SUPINE"
"CDISCPILOT01","VS","01-701-1015",90,"SYSBP","Systolic Blood Pressure","STANDING","137","mmHg","137",137,"mmHg",NA,NA,NA,2,"SCREENING 2",-1,"2013-12-31",-2,"AFTER STANDING FOR 1 MINUTE",816,"PT1M","PATIENT STANDING"
"CDISCPILOT01","VS","01-701-1015",91,"SYSBP","Systolic Blood Pressure","STANDING","145","mmHg","145",145,"mmHg",NA,NA,NA,2,"SCREENING 2",-1,"2013-12-31",-2,"AFTER STANDING FOR 3 MINUTES",817,"PT3M","PATIENT STANDING"
"CDISCPILOT01","VS","01-701-1015",92,"SYSBP","Systolic Blood Pressure","SUPINE","130","mmHg","130",130,"mmHg",NA,NA,"Y",3,"BASELINE",1,"2014-01-02",1,"AFTER LYING DOWN FOR 5 MINUTES",815,"PT5M","PATIENT SUPINE"
"CDISCPILOT01","VS","01-701-1015",93,"SYSBP","Systolic Blood Pressure","STANDING","121","mmHg","121",121,"mmHg",NA,NA,"Y",3,"BASELINE",1,"2014-01-02",1,"AFTER STANDING FOR 1 MINUTE",816,"PT1M","PATIENT STANDING"
"CDISCPILOT01","VS","01-701-1015",94,"SYSBP","Systolic Blood Pressure","STANDING","131","mmHg","131",131,"mmHg",NA,NA,"Y",3,"BASELINE",1,"2014-01-02",1,"AFTER STANDING FOR 3 MINUTES",817,"PT3M","PATIENT STANDING"
"CDISCPILOT01","VS","01-701-1015",95,"SYSBP","Systolic Blood Pressure","SUPINE","137","mmHg","137",137,"mmHg",NA,NA,NA,3.5,"AMBUL ECG PLACEMENT",13,"2014-01-14",13,"AFTER LYING DOWN FOR 5 MINUTES",815,"PT5M","PATIENT SUPINE"
"CDISCPILOT01","VS","01-701-1015",96,"SYSBP","Systolic Blood Pressure","STANDING","127","mmHg","127",127,"mmHg",NA,NA,NA,3.5,"AMBUL ECG PLACEMENT",13,"2014-01-14",13,"AFTER STANDING FOR 1 MINUTE",816,"PT1M","PATIENT STANDING"
"CDISCPILOT01","VS","01-701-1015",97,"SYSBP","Systolic Blood Pressure","STANDING","146","mmHg","146",146,"mmHg",NA,NA,NA,3.5,"AMBUL ECG PLACEMENT",13,"2014-01-14",13,"AFTER STANDING FOR 3 MINUTES",817,"PT3M","PATIENT STANDING"
"CDISCPILOT01","VS","01-701-1015",98,"SYSBP","Systolic Blood Pressure","SUPINE","114","mmHg","114",114,"mmHg",NA,NA,NA,4,"WEEK 2",14,"2014-01-16",15,"AFTER LYING DOWN FOR 5 MINUTES",815,"PT5M","PATIENT SUPINE"
"CDISCPILOT01","VS","01-701-1015",99,"SYSBP","Systolic Blood Pressure","STANDING","121","mmHg","121",121,"mmHg",NA,NA,NA,4,"WEEK 2",14,"2014-01-16",15,"AFTER STANDING FOR 1 MINUTE",816,"PT1M","PATIENT STANDING"
"CDISCPILOT01","VS","01-701-1015",100,"SYSBP","Systolic Blood Pressure","STANDING","132","mmHg","132",132,"mmHg",NA,NA,NA,4,"WEEK 2",14,"2014-01-16",15,"AFTER STANDING FOR 3 MINUTES",817,"PT3M","PATIENT STANDING"
"CDISCPILOT01","VS","01-701-1015",101,"SYSBP","Systolic Blood Pressure","SUPINE","138","mmHg","138",138,"mmHg",NA,NA,NA,5,"WEEK 4",28,"2014-01-30",29,"AFTER LYING DOWN FOR 5 MINUTES",815,"PT5M","PATIENT SUPINE"
"CDISCPILOT01","VS","01-701-1015",102,"SYSBP","Systolic Blood Pressure","STANDING","137","mmHg","137",137,"mmHg",NA,NA,NA,5,"WEEK 4",28,"2014-01-30",29,"AFTER STANDING FOR 1 MINUTE",816,"PT1M","PATIENT STANDING"
"CDISCPILOT01","VS","01-701-1015",103,"SYSBP","Systolic Blood Pressure","STANDING","132","mmHg","132",132,"mmHg",NA,NA,NA,5,"WEEK 4",28,"2014-01-30",29,"AFTER STANDING FOR 3 MINUTES",817,"PT3M","PATIENT STANDING"
"CDISCPILOT01","VS","01-701-1015",104,"SYSBP","Systolic Blood Pressure","SUPINE","138","mmHg","138",138,"mmHg",NA,NA,NA,6,"AMBUL ECG REMOVAL",30,"2014-02-01",31,"AFTER LYING DOWN FOR 5 MINUTES",815,"PT5M","PATIENT SUPINE"
"CDISCPILOT01","VS","01-701-1015",105,"SYSBP","Systolic Blood Pressure","STANDING","131","mmHg","131",131,"mmHg",NA,NA,NA,6,"AMBUL ECG REMOVAL",30,"2014-02-01",31,"AFTER STANDING FOR 1 MINUTE",816,"PT1M","PATIENT STANDING"
"CDISCPILOT01","VS","01-701-1015",106,"SYSBP","Systolic Blood Pressure","STANDING","123","mmHg","123",123,"mmHg",NA,NA,NA,6,"AMBUL ECG REMOVAL",30,"2014-02-01",31,"AFTER STANDING FOR 3 MINUTES",817,"PT3M","PATIENT STANDING"
"CDISCPILOT01","VS","01-701-1015",107,"SYSBP","Systolic Blood Pressure","SUPINE","148","mmHg","148",148,"mmHg",NA,NA,NA,7,"WEEK 6",42,"2014-02-12",42,"AFTER LYING DOWN FOR 5 MINUTES",815,"PT5M","PATIENT SUPINE"
"CDISCPILOT01","VS","01-701-1015",108,"SYSBP","Systolic Blood Pressure","STANDING","137","mmHg","137",137,"mmHg",NA,NA,NA,7,"WEEK 6",42,"2014-02-12",42,"AFTER STANDING FOR 1 MINUTE",816,"PT1M","PATIENT STANDING"
"CDISCPILOT01","VS","01-701-1015",109,"SYSBP","Systolic Blood Pressure","STANDING","138","mmHg","138",138,"mmHg",NA,NA,NA,7,"WEEK 6",42,"2014-02-12",42,"AFTER STANDING FOR 3 MINUTES",817,"PT3M","PATIENT STANDING"
"CDISCPILOT01","VS","01-701-1015",110,"SYSBP","Systolic Blood Pressure","SUPINE","138","mmHg","138",138,"mmHg",NA,NA,NA,8,"WEEK 8",56,"2014-03-05",63,"AFTER LYING DOWN FOR 5 MINUTES",815,"PT5M","PATIENT SUPINE"
"CDISCPILOT01","VS","01-701-1015",111,"SYSBP","Systolic Blood Pressure","STANDING","146","mmHg","146",146,"mmHg",NA,NA,NA,8,"WEEK 8",56,"2014-03-05",63,"AFTER STANDING FOR 1 MINUTE",816,"PT1M","PATIENT STANDING"
"CDISCPILOT01","VS","01-701-1015",112,"SYSBP","Systolic Blood Pressure","STANDING","140","mmHg","140",140,"mmHg",NA,NA,NA,8,"WEEK 8",56,"2014-03-05",63,"AFTER STANDING FOR 3 MINUTES",817,"PT3M","PATIENT STANDING"
"CDISCPILOT01","VS","01-701-1015",113,"SYSBP","Systolic Blood Pressure","SUPINE","139","mmHg","139",139,"mmHg",NA,NA,NA,9,"WEEK 12",84,"2014-03-26",84,"AFTER LYING DOWN FOR 5 MINUTES",815,"PT5M","PATIENT SUPINE"
"CDISCPILOT01","VS","01-701-1015",114,"SYSBP","Systolic Blood Pressure","STANDING","146","mmHg","146",146,"mmHg",NA,NA,NA,9,"WEEK 12",84,"2014-03-26",84,"AFTER STANDING FOR 1 MINUTE",816,"PT1M","PATIENT STANDING"
"CDISCPILOT01","VS","01-701-1015",115,"SYSBP","Systolic Blood Pressure","STANDING","138","mmHg","138",138,"mmHg",NA,NA,NA,9,"WEEK 12",84,"2014-03-26",84,"AFTER STANDING FOR 3 MINUTES",817,"PT3M","PATIENT STANDING"
"CDISCPILOT01","VS","01-701-1015",116,"SYSBP","Systolic Blood Pressure","SUPINE","163","mmHg","163",163,"mmHg",NA,NA,NA,10,"WEEK 16",112,"2014-05-07",126,"AFTER LYING DOWN FOR 5 MINUTES",815,"PT5M","PATIENT SUPINE"
"CDISCPILOT01","VS","01-701-1015",117,"SYSBP","Systolic Blood Pressure","STANDING","145","mmHg","145",145,"mmHg",NA,NA,NA,10,"WEEK 16",112,"2014-05-07",126,"AFTER STANDING FOR 1 MINUTE",816,"PT1M","PATIENT STANDING"
"CDISCPILOT01","VS","01-701-1015",118,"SYSBP","Systolic Blood Pressure","STANDING","152","mmHg","152",152,"mmHg",NA,NA,NA,10,"WEEK 16",112,"2014-05-07",126,"AFTER STANDING FOR 3 MINUTES",817,"PT3M","PATIENT STANDING"
"CDISCPILOT01","VS","01-701-1015",119,"SYSBP","Systolic Blood Pressure","SUPINE","137","mmHg","137",137,"mmHg",NA,NA,NA,11,"WEEK 20",140,"2014-05-21",140,"AFTER LYING DOWN FOR 5 MINUTES",815,"PT5M","PATIENT SUPINE"
"CDISCPILOT01","VS","01-701-1015",120,"SYSBP","Systolic Blood Pressure","STANDING","139","mmHg","139",139,"mmHg",NA,NA,NA,11,"WEEK 20",140,"2014-05-21",140,"AFTER STANDING FOR 1 MINUTE",816,"PT1M","PATIENT STANDING"
"CDISCPILOT01","VS","01-701-1015",121,"SYSBP","Systolic Blood Pressure","STANDING","136","mmHg","136",136,"mmHg",NA,NA,NA,11,"WEEK 20",140,"2014-05-21",140,"AFTER STANDING FOR 3 MINUTES",817,"PT3M","PATIENT STANDING"
"CDISCPILOT01","VS","01-701-1015",122,"SYSBP","Systolic Blood Pressure","SUPINE","129","mmHg","129",129,"mmHg",NA,NA,NA,12,"WEEK 24",168,"2014-06-18",168,"AFTER LYING DOWN FOR 5 MINUTES",815,"PT5M","PATIENT SUPINE"
"CDISCPILOT01","VS","01-701-1015",123,"SYSBP","Systolic Blood Pressure","STANDING","131","mmHg","131",131,"mmHg",NA,NA,NA,12,"WEEK 24",168,"2014-06-18",168,"AFTER STANDING FOR 1 MINUTE",816,"PT1M","PATIENT STANDING"
"CDISCPILOT01","VS","01-701-1015",124,"SYSBP","Systolic Blood Pressure","STANDING","137","mmHg","137",137,"mmHg",NA,NA,NA,12,"WEEK 24",168,"2014-06-18",168,"AFTER STANDING FOR 3 MINUTES",817,"PT3M","PATIENT STANDING"
"CDISCPILOT01","VS","01-701-1015",125,"SYSBP","Systolic Blood Pressure","SUPINE","127","mmHg","127",127,"mmHg",NA,NA,NA,13,"WEEK 26",182,"2014-07-02",182,"AFTER LYING DOWN FOR 5 MINUTES",815,"PT5M","PATIENT SUPINE"
"CDISCPILOT01","VS","01-701-1015",126,"SYSBP","Systolic Blood Pressure","STANDING","128","mmHg","128",128,"mmHg",NA,NA,NA,13,"WEEK 26",182,"2014-07-02",182,"AFTER STANDING FOR 1 MINUTE",816,"PT1M","PATIENT STANDING"
"CDISCPILOT01","VS","01-701-1015",127,"SYSBP","Systolic Blood Pressure","STANDING","129","mmHg","129",129,"mmHg",NA,NA,NA,13,"WEEK 26",182,"2014-07-02",182,"AFTER STANDING FOR 3 MINUTES",817,"PT3M","PATIENT STANDING"
"CDISCPILOT01","VS","01-701-1015",128,"TEMP","Temperature",NA,"96.9","F","36.06",36.06,"C",NA,"ORAL CAVITY",NA,1,"SCREENING 1",-7,"2013-12-26",-7,NA,NA,NA,NA
"CDISCPILOT01","VS","01-701-1015",129,"TEMP","Temperature",NA,"97.0","F","36.11",36.11,"C",NA,"ORAL CAVITY",NA,2,"SCREENING 2",-1,"2013-12-31",-2,NA,NA,NA,NA
"CDISCPILOT01","VS","01-701-1015",130,"TEMP","Temperature",NA,"97.2","F","36.22",36.22,"C",NA,"ORAL CAVITY","Y",3,"BASELINE",1,"2014-01-02",1,NA,NA,NA,NA
"CDISCPILOT01","VS","01-701-1015",131,"TEMP","Temperature",NA,"96.6","F","35.89",35.89,"C",NA,"ORAL CAVITY",NA,3.5,"AMBUL ECG PLACEMENT",13,"2014-01-14",13,NA,NA,NA,NA
"CDISCPILOT01","VS","01-701-1015",132,"TEMP","Temperature",NA,"97.7","F","36.5",36.5,"C",NA,"ORAL CAVITY",NA,4,"WEEK 2",14,"2014-01-16",15,NA,NA,NA,NA
"CDISCPILOT01","VS","01-701-1015",133,"TEMP","Temperature",NA,"97.0","F","36.11",36.11,"C",NA,"ORAL CAVITY",NA,5,"WEEK 4",28,"2014-01-30",29,NA,NA,NA,NA
"CDISCPILOT01","VS","01-701-1015",134,"TEMP","Temperature",NA,"97.5","F","36.39",36.39,"C",NA,"ORAL CAVITY",NA,6,"AMBUL ECG REMOVAL",30,"2014-02-01",31,NA,NA,NA,NA
"CDISCPILOT01","VS","01-701-1015",135,"TEMP","Temperature",NA,"97.4","F","36.33",36.33,"C",NA,"ORAL CAVITY",NA,7,"WEEK 6",42,"2014-02-12",42,NA,NA,NA,NA
"CDISCPILOT01","VS","01-701-1015",136,"TEMP","Temperature",NA,"98.0","F","36.67",36.67,"C",NA,"ORAL CAVITY",NA,8,"WEEK 8",56,"2014-03-05",63,NA,NA,NA,NA
"CDISCPILOT01","VS","01-701-1015",137,"TEMP","Temperature",NA,"97.4","F","36.33",36.33,"C",NA,"ORAL CAVITY",NA,9,"WEEK 12",84,"2014-03-26",84,NA,NA,NA,NA
"CDISCPILOT01","VS","01-701-1015",138,"TEMP","Temperature",NA,"97.9","F","36.61",36.61,"C",NA,"ORAL CAVITY",NA,10,"WEEK 16",112,"2014-05-07",126,NA,NA,NA,NA
"CDISCPILOT01","VS","01-701-1015",139,"TEMP","Temperature",NA,"97.4","F","36.33",36.33,"C",NA,"ORAL CAVITY",NA,11,"WEEK 20",140,"2014-05-21",140,NA,NA,NA,NA
"CDISCPILOT01","VS","01-701-1015",140,"TEMP","Temperature",NA,"97.7","F","36.5",36.5,"C",NA,"ORAL CAVITY",NA,12,"WEEK 24",168,"2014-06-18",168,NA,NA,NA,NA
"CDISCPILOT01","VS","01-701-1015",141,"TEMP","Temperature",NA,"97.2","F","36.22",36.22,"C",NA,"ORAL CAVITY",NA,13,"WEEK 26",182,"2014-07-02",182,NA,NA,NA,NA
"CDISCPILOT01","VS","01-701-1015",142,"WEIGHT","Weight",NA,"119.0","LB","53.98",53.98,"kg",NA,NA,NA,1,"SCREENING 1",-7,"2013-12-26",-7,NA,NA,NA,NA
"CDISCPILOT01","VS","01-701-1015",143,"WEIGHT","Weight",NA,"120.0","LB","54.43",54.43,"kg",NA,NA,"Y",3,"BASELINE",1,"2014-01-02",1,NA,NA,NA,NA
"CDISCPILOT01","VS","01-701-1015",144,"WEIGHT","Weight",NA,"117.0","LB","53.07",53.07,"kg",NA,NA,NA,4,"WEEK 2",14,"2014-01-16",15,NA,NA,NA,NA
"CDISCPILOT01","VS","01-701-1015",145,"WEIGHT","Weight",NA,"119.0","LB","53.98",53.98,"kg",NA,NA,NA,5,"WEEK 4",28,"2014-01-30",29,NA,NA,NA,NA
"CDISCPILOT01","VS","01-701-1015",146,"WEIGHT","Weight",NA,"117.0","LB","53.07",53.07,"kg",NA,NA,NA,7,"WEEK 6",42,"2014-02-12",42,NA,NA,NA,NA
"CDISCPILOT01","VS","01-701-1015",147,"WEIGHT","Weight",NA,"117.0","LB","53.07",53.07,"kg",NA,NA,NA,8,"WEEK 8",56,"2014-03-05",63,NA,NA,NA,NA
"CDISCPILOT01","VS","01-701-1015",148,"WEIGHT","Weight",NA,"117.0","LB","53.07",53.07,"kg",NA,NA,NA,9,"WEEK 12",84,"2014-03-26",84,NA,NA,NA,NA
"CDISCPILOT01","VS","01-701-1015",149,"WEIGHT","Weight",NA,"117.0","LB","53.07",53.07,"kg",NA,NA,NA,10,"WEEK 16",112,"2014-05-07",126,NA,NA,NA,NA
"CDISCPILOT01","VS","01-701-1015",150,"WEIGHT","Weight",NA,"117.0","LB","53.07",53.07,"kg",NA,NA,NA,11,"WEEK 20",140,"2014-05-21",140,NA,NA,NA,NA
"CDISCPILOT01","VS","01-701-1015",151,"WEIGHT","Weight",NA,"117.0","LB","53.07",53.07,"kg",NA,NA,NA,12,"WEEK 24",168,"2014-06-18",168,NA,NA,NA,NA
"CDISCPILOT01","VS","01-701-1015",152,"WEIGHT","Weight",NA,"118.0","LB","53.52",53.52,"kg",NA,NA,NA,13,"WEEK 26",182,"2014-07-02",182,NA,NA,NA,NA
"CDISCPILOT01","VS","01-701-1023",1,"DIABP","Diastolic Blood Pressure","SUPINE","86","mmHg","86",86,"mmHg",NA,NA,NA,1,"SCREENING 1",-7,"2012-07-22",-14,"AFTER LYING DOWN FOR 5 MINUTES",815,"PT5M","PATIENT SUPINE"
"CDISCPILOT01","VS","01-701-1023",2,"DIABP","Diastolic Blood Pressure","STANDING","89","mmHg","89",89,"mmHg",NA,NA,NA,1,"SCREENING 1",-7,"2012-07-22",-14,"AFTER STANDING FOR 1 MINUTE",816,"PT1M","PATIENT STANDING"
"CDISCPILOT01","VS","01-701-1023",3,"DIABP","Diastolic Blood Pressure","STANDING","90","mmHg","90",90,"mmHg",NA,NA,NA,1,"SCREENING 1",-7,"2012-07-22",-14,"AFTER STANDING FOR 3 MINUTES",817,"PT3M","PATIENT STANDING"
"CDISCPILOT01","VS","01-701-1023",4,"DIABP","Diastolic Blood Pressure","SUPINE","77","mmHg","77",77,"mmHg",NA,NA,NA,2,"SCREENING 2",-1,"2012-08-03",-2,"AFTER LYING DOWN FOR 5 MINUTES",815,"PT5M","PATIENT SUPINE"
"CDISCPILOT01","VS","01-701-1023",5,"DIABP","Diastolic Blood Pressure","STANDING","79","mmHg","79",79,"mmHg",NA,NA,NA,2,"SCREENING 2",-1,"2012-08-03",-2,"AFTER STANDING FOR 1 MINUTE",816,"PT1M","PATIENT STANDING"
"CDISCPILOT01","VS","01-701-1023",6,"DIABP","Diastolic Blood Pressure","STANDING","85","mmHg","85",85,"mmHg",NA,NA,NA,2,"SCREENING 2",-1,"2012-08-03",-2,"AFTER STANDING FOR 3 MINUTES",817,"PT3M","PATIENT STANDING"
"CDISCPILOT01","VS","01-701-1023",7,"DIABP","Diastolic Blood Pressure","SUPINE","84","mmHg","84",84,"mmHg",NA,NA,"Y",3,"BASELINE",1,"2012-08-05",1,"AFTER LYING DOWN FOR 5 MINUTES",815,"PT5M","PATIENT SUPINE"
"CDISCPILOT01","VS","01-701-1023",8,"DIABP","Diastolic Blood Pressure","STANDING","86","mmHg","86",86,"mmHg",NA,NA,"Y",3,"BASELINE",1,"2012-08-05",1,"AFTER STANDING FOR 1 MINUTE",816,"PT1M","PATIENT STANDING"
"CDISCPILOT01","VS","01-701-1023",9,"DIABP","Diastolic Blood Pressure","STANDING","88","mmHg","88",88,"mmHg",NA,NA,"Y",3,"BASELINE",1,"2012-08-05",1,"AFTER STANDING FOR 3 MINUTES",817,"PT3M","PATIENT STANDING"
"CDISCPILOT01","VS","01-701-1023",10,"DIABP","Diastolic Blood Pressure","SUPINE","82","mmHg","82",82,"mmHg",NA,NA,NA,3.5,"AMBUL ECG PLACEMENT",13,"2012-08-26",22,"AFTER LYING DOWN FOR 5 MINUTES",815,"PT5M","PATIENT SUPINE"
"CDISCPILOT01","VS","01-701-1023",11,"DIABP","Diastolic Blood Pressure","STANDING","88","mmHg","88",88,"mmHg",NA,NA,NA,3.5,"AMBUL ECG PLACEMENT",13,"2012-08-26",22,"AFTER STANDING FOR 1 MINUTE",816,"PT1M","PATIENT STANDING"
"CDISCPILOT01","VS","01-701-1023",12,"DIABP","Diastolic Blood Pressure","STANDING","89","mmHg","89",89,"mmHg",NA,NA,NA,3.5,"AMBUL ECG PLACEMENT",13,"2012-08-26",22,"AFTER STANDING FOR 3 MINUTES",817,"PT3M","PATIENT STANDING"
"CDISCPILOT01","VS","01-701-1023",13,"DIABP","Diastolic Blood Pressure","SUPINE","88","mmHg","88",88,"mmHg",NA,NA,NA,4,"WEEK 2",14,"2012-08-27",23,"AFTER LYING DOWN FOR 5 MINUTES",815,"PT5M","PATIENT SUPINE"
"CDISCPILOT01","VS","01-701-1023",14,"DIABP","Diastolic Blood Pressure","STANDING","86","mmHg","86",86,"mmHg",NA,NA,NA,4,"WEEK 2",14,"2012-08-27",23,"AFTER STANDING FOR 1 MINUTE",816,"PT1M","PATIENT STANDING"
"CDISCPILOT01","VS","01-701-1023",15,"DIABP","Diastolic Blood Pressure","STANDING","90","mmHg","90",90,"mmHg",NA,NA,NA,4,"WEEK 2",14,"2012-08-27",23,"AFTER STANDING FOR 3 MINUTES",817,"PT3M","PATIENT STANDING"
"CDISCPILOT01","VS","01-701-1023",16,"DIABP","Diastolic Blood Pressure","SUPINE","86","mmHg","86",86,"mmHg",NA,NA,NA,5,"WEEK 4",28,"2012-09-02",29,"AFTER LYING DOWN FOR 5 MINUTES",815,"PT5M","PATIENT SUPINE"
"CDISCPILOT01","VS","01-701-1023",17,"DIABP","Diastolic Blood Pressure","STANDING","88","mmHg","88",88,"mmHg",NA,NA,NA,5,"WEEK 4",28,"2012-09-02",29,"AFTER STANDING FOR 1 MINUTE",816,"PT1M","PATIENT STANDING"
"CDISCPILOT01","VS","01-701-1023",18,"DIABP","Diastolic Blood Pressure","STANDING","92","mmHg","92",92,"mmHg",NA,NA,NA,5,"WEEK 4",28,"2012-09-02",29,"AFTER STANDING FOR 3 MINUTES",817,"PT3M","PATIENT STANDING"
"CDISCPILOT01","VS","01-701-1023",19,"DIABP","Diastolic Blood Pressure","SUPINE","89","mmHg","89",89,"mmHg",NA,NA,NA,201,"RETRIEVAL",168,"2013-02-18",198,"AFTER LYING DOWN FOR 5 MINUTES",815,"PT5M","PATIENT SUPINE"
"CDISCPILOT01","VS","01-701-1023",20,"DIABP","Diastolic Blood Pressure","STANDING","86","mmHg","86",86,"mmHg",NA,NA,NA,201,"RETRIEVAL",168,"2013-02-18",198,"AFTER STANDING FOR 1 MINUTE",816,"PT1M","PATIENT STANDING"
"CDISCPILOT01","VS","01-701-1023",21,"DIABP","Diastolic Blood Pressure","STANDING","84","mmHg","84",84,"mmHg",NA,NA,NA,201,"RETRIEVAL",168,"2013-02-18",198,"AFTER STANDING FOR 3 MINUTES",817,"PT3M","PATIENT STANDING"
"CDISCPILOT01","VS","01-701-1023",22,"HEIGHT","Height",NA,"64.0","IN","162.56",162.56,"cm",NA,NA,NA,1,"SCREENING 1",-7,"2012-07-22",-14,NA,NA,NA,NA
"CDISCPILOT01","VS","01-701-1023",23,"PULSE","Pulse Rate","SUPINE","65","BEATS/MIN","65",65,"BEATS/MIN",NA,NA,NA,1,"SCREENING 1",-7,"2012-07-22",-14,"AFTER LYING DOWN FOR 5 MINUTES",815,"PT5M","PATIENT SUPINE"
"CDISCPILOT01","VS","01-701-1023",24,"PULSE","Pulse Rate","STANDING","78","BEATS/MIN","78",78,"BEATS/MIN",NA,NA,NA,1,"SCREENING 1",-7,"2012-07-22",-14,"AFTER STANDING FOR 1 MINUTE",816,"PT1M","PATIENT STANDING"
"CDISCPILOT01","VS","01-701-1023",25,"PULSE","Pulse Rate","STANDING","74","BEATS/MIN","74",74,"BEATS/MIN",NA,NA,NA,1,"SCREENING 1",-7,"2012-07-22",-14,"AFTER STANDING FOR 3 MINUTES",817,"PT3M","PATIENT STANDING"
"CDISCPILOT01","VS","01-701-1023",26,"PULSE","Pulse Rate","SUPINE","79","BEATS/MIN","79",79,"BEATS/MIN",NA,NA,NA,2,"SCREENING 2",-1,"2012-08-03",-2,"AFTER LYING DOWN FOR 5 MINUTES",815,"PT5M","PATIENT SUPINE"
"CDISCPILOT01","VS","01-701-1023",27,"PULSE","Pulse Rate","STANDING","91","BEATS/MIN","91",91,"BEATS/MIN",NA,NA,NA,2,"SCREENING 2",-1,"2012-08-03",-2,"AFTER STANDING FOR 1 MINUTE",816,"PT1M","PATIENT STANDING"
"CDISCPILOT01","VS","01-701-1023",28,"PULSE","Pulse Rate","STANDING","92","BEATS/MIN","92",92,"BEATS/MIN",NA,NA,NA,2,"SCREENING 2",-1,"2012-08-03",-2,"AFTER STANDING FOR 3 MINUTES",817,"PT3M","PATIENT STANDING"
"CDISCPILOT01","VS","01-701-1023",29,"PULSE","Pulse Rate","SUPINE","68","BEATS/MIN","68",68,"BEATS/MIN",NA,NA,"Y",3,"BASELINE",1,"2012-08-05",1,"AFTER LYING DOWN FOR 5 MINUTES",815,"PT5M","PATIENT SUPINE"
"CDISCPILOT01","VS","01-701-1023",30,"PULSE","Pulse Rate","STANDING","80","BEATS/MIN","80",80,"BEATS/MIN",NA,NA,"Y",3,"BASELINE",1,"2012-08-05",1,"AFTER STANDING FOR 1 MINUTE",816,"PT1M","PATIENT STANDING"
"CDISCPILOT01","VS","01-701-1023",31,"PULSE","Pulse Rate","STANDING","76","BEATS/MIN","76",76,"BEATS/MIN",NA,NA,"Y",3,"BASELINE",1,"2012-08-05",1,"AFTER STANDING FOR 3 MINUTES",817,"PT3M","PATIENT STANDING"
"CDISCPILOT01","VS","01-701-1023",32,"PULSE","Pulse Rate","SUPINE","71","BEATS/MIN","71",71,"BEATS/MIN",NA,NA,NA,3.5,"AMBUL ECG PLACEMENT",13,"2012-08-26",22,"AFTER LYING DOWN FOR 5 MINUTES",815,"PT5M","PATIENT SUPINE"
"CDISCPILOT01","VS","01-701-1023",33,"PULSE","Pulse Rate","STANDING","79","BEATS/MIN","79",79,"BEATS/MIN",NA,NA,NA,3.5,"AMBUL ECG PLACEMENT",13,"2012-08-26",22,"AFTER STANDING FOR 1 MINUTE",816,"PT1M","PATIENT STANDING"
"CDISCPILOT01","VS","01-701-1023",34,"PULSE","Pulse Rate","STANDING","77","BEATS/MIN","77",77,"BEATS/MIN",NA,NA,NA,3.5,"AMBUL ECG PLACEMENT",13,"2012-08-26",22,"AFTER STANDING FOR 3 MINUTES",817,"PT3M","PATIENT STANDING"
"CDISCPILOT01","VS","01-701-1023",35,"PULSE","Pulse Rate","SUPINE","84","BEATS/MIN","84",84,"BEATS/MIN",NA,NA,NA,4,"WEEK 2",14,"2012-08-27",23,"AFTER LYING DOWN FOR 5 MINUTES",815,"PT5M","PATIENT SUPINE"
"CDISCPILOT01","VS","01-701-1023",36,"PULSE","Pulse Rate","STANDING","92","BEATS/MIN","92",92,"BEATS/MIN",NA,NA,NA,4,"WEEK 2",14,"2012-08-27",23,"AFTER STANDING FOR 1 MINUTE",816,"PT1M","PATIENT STANDING"
"CDISCPILOT01","VS","01-701-1023",37,"PULSE","Pulse Rate","STANDING","94","BEATS/MIN","94",94,"BEATS/MIN",NA,NA,NA,4,"WEEK 2",14,"2012-08-27",23,"AFTER STANDING FOR 3 MINUTES",817,"PT3M","PATIENT STANDING"
"CDISCPILOT01","VS","01-701-1023",38,"PULSE","Pulse Rate","SUPINE","64","BEATS/MIN","64",64,"BEATS/MIN",NA,NA,NA,5,"WEEK 4",28,"2012-09-02",29,"AFTER LYING DOWN FOR 5 MINUTES",815,"PT5M","PATIENT SUPINE"
"CDISCPILOT01","VS","01-701-1023",39,"PULSE","Pulse Rate","STANDING","76","BEATS/MIN","76",76,"BEATS/MIN",NA,NA,NA,5,"WEEK 4",28,"2012-09-02",29,"AFTER STANDING FOR 1 MINUTE",816,"PT1M","PATIENT STANDING"
"CDISCPILOT01","VS","01-701-1023",40,"PULSE","Pulse Rate","STANDING","70","BEATS/MIN","70",70,"BEATS/MIN",NA,NA,NA,5,"WEEK 4",28,"2012-09-02",29,"AFTER STANDING FOR 3 MINUTES",817,"PT3M","PATIENT STANDING"
"CDISCPILOT01","VS","01-701-1023",41,"PULSE","Pulse Rate","SUPINE","72","BEATS/MIN","72",72,"BEATS/MIN",NA,NA,NA,201,"RETRIEVAL",168,"2013-02-18",198,"AFTER LYING DOWN FOR 5 MINUTES",815,"PT5M","PATIENT SUPINE"
"CDISCPILOT01","VS","01-701-1023",42,"PULSE","Pulse Rate","STANDING","84","BEATS/MIN","84",84,"BEATS/MIN",NA,NA,NA,201,"RETRIEVAL",168,"2013-02-18",198,"AFTER STANDING FOR 1 MINUTE",816,"PT1M","PATIENT STANDING"
"CDISCPILOT01","VS","01-701-1023",43,"PULSE","Pulse Rate","STANDING","76","BEATS/MIN","76",76,"BEATS/MIN",NA,NA,NA,201,"RETRIEVAL",168,"2013-02-18",198,"AFTER STANDING FOR 3 MINUTES",817,"PT3M","PATIENT STANDING"
"CDISCPILOT01","VS","01-701-1023",44,"SYSBP","Systolic Blood Pressure","SUPINE","130","mmHg","130",130,"mmHg",NA,NA,NA,1,"SCREENING 1",-7,"2012-07-22",-14,"AFTER LYING DOWN FOR 5 MINUTES",815,"PT5M","PATIENT SUPINE"
"CDISCPILOT01","VS","01-701-1023",45,"SYSBP","Systolic Blood Pressure","STANDING","132","mmHg","132",132,"mmHg",NA,NA,NA,1,"SCREENING 1",-7,"2012-07-22",-14,"AFTER STANDING FOR 1 MINUTE",816,"PT1M","PATIENT STANDING"
"CDISCPILOT01","VS","01-701-1023",46,"SYSBP","Systolic Blood Pressure","STANDING","140","mmHg","140",140,"mmHg",NA,NA,NA,1,"SCREENING 1",-7,"2012-07-22",-14,"AFTER STANDING FOR 3 MINUTES",817,"PT3M","PATIENT STANDING"
"CDISCPILOT01","VS","01-701-1023",47,"SYSBP","Systolic Blood Pressure","SUPINE","131","mmHg","131",131,"mmHg",NA,NA,NA,2,"SCREENING 2",-1,"2012-08-03",-2,"AFTER LYING DOWN FOR 5 MINUTES",815,"PT5M","PATIENT SUPINE"
"CDISCPILOT01","VS","01-701-1023",48,"SYSBP","Systolic Blood Pressure","STANDING","129","mmHg","129",129,"mmHg",NA,NA,NA,2,"SCREENING 2",-1,"2012-08-03",-2,"AFTER STANDING FOR 1 MINUTE",816,"PT1M","PATIENT STANDING"
"CDISCPILOT01","VS","01-701-1023",49,"SYSBP","Systolic Blood Pressure","STANDING","138","mmHg","138",138,"mmHg",NA,NA,NA,2,"SCREENING 2",-1,"2012-08-03",-2,"AFTER STANDING FOR 3 MINUTES",817,"PT3M","PATIENT STANDING"
"CDISCPILOT01","VS","01-701-1023",50,"SYSBP","Systolic Blood Pressure","SUPINE","130","mmHg","130",130,"mmHg",NA,NA,"Y",3,"BASELINE",1,"2012-08-05",1,"AFTER LYING DOWN FOR 5 MINUTES",815,"PT5M","PATIENT SUPINE"
"CDISCPILOT01","VS","01-701-1023",51,"SYSBP","Systolic Blood Pressure","STANDING","132","mmHg","132",132,"mmHg",NA,NA,"Y",3,"BASELINE",1,"2012-08-05",1,"AFTER STANDING FOR 1 MINUTE",816,"PT1M","PATIENT STANDING"
"CDISCPILOT01","VS","01-701-1023",52,"SYSBP","Systolic Blood Pressure","STANDING","132","mmHg","132",132,"mmHg",NA,NA,"Y",3,"BASELINE",1,"2012-08-05",1,"AFTER STANDING FOR 3 MINUTES",817,"PT3M","PATIENT STANDING"
"CDISCPILOT01","VS","01-701-1023",53,"SYSBP","Systolic Blood Pressure","SUPINE","133","mmHg","133",133,"mmHg",NA,NA,NA,3.5,"AMBUL ECG PLACEMENT",13,"2012-08-26",22,"AFTER LYING DOWN FOR 5 MINUTES",815,"PT5M","PATIENT SUPINE"
"CDISCPILOT01","VS","01-701-1023",54,"SYSBP","Systolic Blood Pressure","STANDING","130","mmHg","130",130,"mmHg",NA,NA,NA,3.5,"AMBUL ECG PLACEMENT",13,"2012-08-26",22,"AFTER STANDING FOR 1 MINUTE",816,"PT1M","PATIENT STANDING"
"CDISCPILOT01","VS","01-701-1023",55,"SYSBP","Systolic Blood Pressure","STANDING","138","mmHg","138",138,"mmHg",NA,NA,NA,3.5,"AMBUL ECG PLACEMENT",13,"2012-08-26",22,"AFTER STANDING FOR 3 MINUTES",817,"PT3M","PATIENT STANDING"
"CDISCPILOT01","VS","01-701-1023",56,"SYSBP","Systolic Blood Pressure","SUPINE","122","mmHg","122",122,"mmHg",NA,NA,NA,4,"WEEK 2",14,"2012-08-27",23,"AFTER LYING DOWN FOR 5 MINUTES",815,"PT5M","PATIENT SUPINE"
"CDISCPILOT01","VS","01-701-1023",57,"SYSBP","Systolic Blood Pressure","STANDING","130","mmHg","130",130,"mmHg",NA,NA,NA,4,"WEEK 2",14,"2012-08-27",23,"AFTER STANDING FOR 1 MINUTE",816,"PT1M","PATIENT STANDING"
"CDISCPILOT01","VS","01-701-1023",58,"SYSBP","Systolic Blood Pressure","STANDING","138","mmHg","138",138,"mmHg",NA,NA,NA,4,"WEEK 2",14,"2012-08-27",23,"AFTER STANDING FOR 3 MINUTES",817,"PT3M","PATIENT STANDING"
"CDISCPILOT01","VS","01-701-1023",59,"SYSBP","Systolic Blood Pressure","SUPINE","130","mmHg","130",130,"mmHg",NA,NA,NA,5,"WEEK 4",28,"2012-09-02",29,"AFTER LYING DOWN FOR 5 MINUTES",815,"PT5M","PATIENT SUPINE"
"CDISCPILOT01","VS","01-701-1023",60,"SYSBP","Systolic Blood Pressure","STANDING","134","mmHg","134",134,"mmHg",NA,NA,NA,5,"WEEK 4",28,"2012-09-02",29,"AFTER STANDING FOR 1 MINUTE",816,"PT1M","PATIENT STANDING"
"CDISCPILOT01","VS","01-701-1023",61,"SYSBP","Systolic Blood Pressure","STANDING","136","mmHg","136",136,"mmHg",NA,NA,NA,5,"WEEK 4",28,"2012-09-02",29,"AFTER STANDING FOR 3 MINUTES",817,"PT3M","PATIENT STANDING"
"CDISCPILOT01","VS","01-701-1023",62,"SYSBP","Systolic Blood Pressure","SUPINE","125","mmHg","125",125,"mmHg",NA,NA,NA,201,"RETRIEVAL",168,"2013-02-18",198,"AFTER LYING DOWN FOR 5 MINUTES",815,"PT5M","PATIENT SUPINE"
"CDISCPILOT01","VS","01-701-1023",63,"SYSBP","Systolic Blood Pressure","STANDING","110","mmHg","110",110,"mmHg",NA,NA,NA,201,"RETRIEVAL",168,"2013-02-18",198,"AFTER STANDING FOR 1 MINUTE",816,"PT1M","PATIENT STANDING"
"CDISCPILOT01","VS","01-701-1023",64,"SYSBP","Systolic Blood Pressure","STANDING","130","mmHg","130",130,"mmHg",NA,NA,NA,201,"RETRIEVAL",168,"2013-02-18",198,"AFTER STANDING FOR 3 MINUTES",817,"PT3M","PATIENT STANDING"
"CDISCPILOT01","VS","01-701-1023",65,"TEMP","Temperature",NA,"097.8","F","36.56",36.56,"C",NA,"ORAL CAVITY",NA,1,"SCREENING 1",-7,"2012-07-22",-14,NA,NA,NA,NA
"CDISCPILOT01","VS","01-701-1023",66,"TEMP","Temperature",NA,"097.8","F","36.56",36.56,"C",NA,"ORAL CAVITY",NA,2,"SCREENING 2",-1,"2012-08-03",-2,NA,NA,NA,NA
"CDISCPILOT01","VS","01-701-1023",67,"TEMP","Temperature",NA,"097.3","F","36.28",36.28,"C",NA,"ORAL CAVITY","Y",3,"BASELINE",1,"2012-08-05",1,NA,NA,NA,NA
"CDISCPILOT01","VS","01-701-1023",68,"TEMP","Temperature",NA,"097.6","F","36.44",36.44,"C",NA,"ORAL CAVITY",NA,3.5,"AMBUL ECG PLACEMENT",13,"2012-08-26",22,NA,NA,NA,NA
"CDISCPILOT01","VS","01-701-1023",69,"TEMP","Temperature",NA,"098.5","F","36.94",36.94,"C",NA,"ORAL CAVITY",NA,4,"WEEK 2",14,"2012-08-27",23,NA,NA,NA,NA
"CDISCPILOT01","VS","01-701-1023",70,"TEMP","Temperature",NA,"097.2","F","36.22",36.22,"C",NA,"ORAL CAVITY",NA,5,"WEEK 4",28,"2012-09-02",29,NA,NA,NA,NA
"CDISCPILOT01","VS","01-701-1023",71,"TEMP","Temperature",NA,"97.8","F","36.56",36.56,"C",NA,"ORAL CAVITY",NA,201,"RETRIEVAL",168,"2013-02-18",198,NA,NA,NA,NA
"CDISCPILOT01","VS","01-701-1023",72,"WEIGHT","Weight",NA,"173.0","LB","78.47",78.47,"kg",NA,NA,NA,1,"SCREENING 1",-7,"2012-07-22",-14,NA,NA,NA,NA
"CDISCPILOT01","VS","01-701-1023",73,"WEIGHT","Weight",NA,"177.0","LB","80.29",80.29,"kg",NA,NA,"Y",3,"BASELINE",1,"2012-08-05",1,NA,NA,NA,NA
"CDISCPILOT01","VS","01-701-1023",74,"WEIGHT","Weight",NA,"178.0","LB","80.74",80.74,"kg",NA,NA,NA,4,"WEEK 2",14,"2012-08-27",23,NA,NA,NA,NA
"CDISCPILOT01","VS","01-701-1023",75,"WEIGHT","Weight",NA,"177.0","LB","80.29",80.29,"kg",NA,NA,NA,5,"WEEK 4",28,"2012-09-02",29,NA,NA,NA,NA
"CDISCPILOT01","VS","01-701-1028",1,"DIABP","Diastolic Blood Pressure","SUPINE","76","mmHg","76",76,"mmHg",NA,NA,NA,1,"SCREENING 1",-7,"2013-07-11",-8,"AFTER LYING DOWN FOR 5 MINUTES",815,"PT5M","PATIENT SUPINE"
"CDISCPILOT01","VS","01-701-1028",2,"DIABP","Diastolic Blood Pressure","STANDING","70","mmHg","70",70,"mmHg",NA,NA,NA,1,"SCREENING 1",-7,"2013-07-11",-8,"AFTER STANDING FOR 1 MINUTE",816,"PT1M","PATIENT STANDING"
"CDISCPILOT01","VS","01-701-1028",3,"DIABP","Diastolic Blood Pressure","STANDING","73","mmHg","73",73,"mmHg",NA,NA,NA,1,"SCREENING 1",-7,"2013-07-11",-8,"AFTER STANDING FOR 3 MINUTES",817,"PT3M","PATIENT STANDING"
"CDISCPILOT01","VS","01-701-1028",4,"DIABP","Diastolic Blood Pressure","SUPINE","76","mmHg","76",76,"mmHg",NA,NA,NA,2,"SCREENING 2",-1,"2013-07-17",-2,"AFTER LYING DOWN FOR 5 MINUTES",815,"PT5M","PATIENT SUPINE"
"CDISCPILOT01","VS","01-701-1028",5,"DIABP","Diastolic Blood Pressure","STANDING","76","mmHg","76",76,"mmHg",NA,NA,NA,2,"SCREENING 2",-1,"2013-07-17",-2,"AFTER STANDING FOR 1 MINUTE",816,"PT1M","PATIENT STANDING"
"CDISCPILOT01","VS","01-701-1028",6,"DIABP","Diastolic Blood Pressure","STANDING","85","mmHg","85",85,"mmHg",NA,NA,NA,2,"SCREENING 2",-1,"2013-07-17",-2,"AFTER STANDING FOR 3 MINUTES",817,"PT3M","PATIENT STANDING"
"CDISCPILOT01","VS","01-701-1028",7,"DIABP","Diastolic Blood Pressure","SUPINE","85","mmHg","85",85,"mmHg",NA,NA,"Y",3,"BASELINE",1,"2013-07-19",1,"AFTER LYING DOWN FOR 5 MINUTES",815,"PT5M","PATIENT SUPINE"
"CDISCPILOT01","VS","01-701-1028",8,"DIABP","Diastolic Blood Pressure","STANDING","76","mmHg","76",76,"mmHg",NA,NA,"Y",3,"BASELINE",1,"2013-07-19",1,"AFTER STANDING FOR 1 MINUTE",816,"PT1M","PATIENT STANDING"
"CDISCPILOT01","VS","01-701-1028",9,"DIABP","Diastolic Blood Pressure","STANDING","75","mmHg","75",75,"mmHg",NA,NA,"Y",3,"BASELINE",1,"2013-07-19",1,"AFTER STANDING FOR 3 MINUTES",817,"PT3M","PATIENT STANDING"
"CDISCPILOT01","VS","01-701-1028",10,"DIABP","Diastolic Blood Pressure","SUPINE","82","mmHg","82",82,"mmHg",NA,NA,NA,3.5,"AMBUL ECG PLACEMENT",13,"2013-07-31",13,"AFTER LYING DOWN FOR 5 MINUTES",815,"PT5M","PATIENT SUPINE"
"CDISCPILOT01","VS","01-701-1028",11,"DIABP","Diastolic Blood Pressure","STANDING","82","mmHg","82",82,"mmHg",NA,NA,NA,3.5,"AMBUL ECG PLACEMENT",13,"2013-07-31",13,"AFTER STANDING FOR 1 MINUTE",816,"PT1M","PATIENT STANDING"
"CDISCPILOT01","VS","01-701-1028",12,"DIABP","Diastolic Blood Pressure","STANDING","84","mmHg","84",84,"mmHg",NA,NA,NA,3.5,"AMBUL ECG PLACEMENT",13,"2013-07-31",13,"AFTER STANDING FOR 3 MINUTES",817,"PT3M","PATIENT STANDING"
"CDISCPILOT01","VS","01-701-1028",13,"DIABP","Diastolic Blood Pressure","SUPINE","78","mmHg","78",78,"mmHg",NA,NA,NA,4,"WEEK 2",14,"2013-08-01",14,"AFTER LYING DOWN FOR 5 MINUTES",815,"PT5M","PATIENT SUPINE"
"CDISCPILOT01","VS","01-701-1028",14,"DIABP","Diastolic Blood Pressure","STANDING","80","mmHg","80",80,"mmHg",NA,NA,NA,4,"WEEK 2",14,"2013-08-01",14,"AFTER STANDING FOR 1 MINUTE",816,"PT1M","PATIENT STANDING"
"CDISCPILOT01","VS","01-701-1028",15,"DIABP","Diastolic Blood Pressure","STANDING","80","mmHg","80",80,"mmHg",NA,NA,NA,4,"WEEK 2",14,"2013-08-01",14,"AFTER STANDING FOR 3 MINUTES",817,"PT3M","PATIENT STANDING"
"CDISCPILOT01","VS","01-701-1028",16,"DIABP","Diastolic Blood Pressure","SUPINE","69","mmHg","69",69,"mmHg",NA,NA,NA,5,"WEEK 4",28,"2013-08-14",27,"AFTER LYING DOWN FOR 5 MINUTES",815,"PT5M","PATIENT SUPINE"
"CDISCPILOT01","VS","01-701-1028",17,"DIABP","Diastolic Blood Pressure","STANDING","72","mmHg","72",72,"mmHg",NA,NA,NA,5,"WEEK 4",28,"2013-08-14",27,"AFTER STANDING FOR 1 MINUTE",816,"PT1M","PATIENT STANDING"
"CDISCPILOT01","VS","01-701-1028",18,"DIABP","Diastolic Blood Pressure","STANDING","68","mmHg","68",68,"mmHg",NA,NA,NA,5,"WEEK 4",28,"2013-08-14",27,"AFTER STANDING FOR 3 MINUTES",817,"PT3M","PATIENT STANDING"
"CDISCPILOT01","VS","01-701-1028",19,"DIABP","Diastolic Blood Pressure","SUPINE","76","mmHg","76",76,"mmHg",NA,NA,NA,6,"AMBUL ECG REMOVAL",30,"2013-08-16",29,"AFTER LYING DOWN FOR 5 MINUTES",815,"PT5M","PATIENT SUPINE"
"CDISCPILOT01","VS","01-701-1028",20,"DIABP","Diastolic Blood Pressure","STANDING","85","mmHg","85",85,"mmHg",NA,NA,NA,6,"AMBUL ECG REMOVAL",30,"2013-08-16",29,"AFTER STANDING FOR 1 MINUTE",816,"PT1M","PATIENT STANDING"
"CDISCPILOT01","VS","01-701-1028",21,"DIABP","Diastolic Blood Pressure","STANDING","81","mmHg","81",81,"mmHg",NA,NA,NA,6,"AMBUL ECG REMOVAL",30,"2013-08-16",29,"AFTER STANDING FOR 3 MINUTES",817,"PT3M","PATIENT STANDING"
"CDISCPILOT01","VS","01-701-1028",22,"DIABP","Diastolic Blood Pressure","SUPINE","69","mmHg","69",69,"mmHg",NA,NA,NA,7,"WEEK 6",42,"2013-08-29",42,"AFTER LYING DOWN FOR 5 MINUTES",815,"PT5M","PATIENT SUPINE"
"CDISCPILOT01","VS","01-701-1028",23,"DIABP","Diastolic Blood Pressure","STANDING","77","mmHg","77",77,"mmHg",NA,NA,NA,7,"WEEK 6",42,"2013-08-29",42,"AFTER STANDING FOR 1 MINUTE",816,"PT1M","PATIENT STANDING"
"CDISCPILOT01","VS","01-701-1028",24,"DIABP","Diastolic Blood Pressure","STANDING","76","mmHg","76",76,"mmHg",NA,NA,NA,7,"WEEK 6",42,"2013-08-29",42,"AFTER STANDING FOR 3 MINUTES",817,"PT3M","PATIENT STANDING"
"CDISCPILOT01","VS","01-701-1028",25,"DIABP","Diastolic Blood Pressure","SUPINE","76","mmHg","76",76,"mmHg",NA,NA,NA,8,"WEEK 8",56,"2013-09-10",54,"AFTER LYING DOWN FOR 5 MINUTES",815,"PT5M","PATIENT SUPINE"
"CDISCPILOT01","VS","01-701-1028",26,"DIABP","Diastolic Blood Pressure","STANDING","81","mmHg","81",81,"mmHg",NA,NA,NA,8,"WEEK 8",56,"2013-09-10",54,"AFTER STANDING FOR 1 MINUTE",816,"PT1M","PATIENT STANDING"
"CDISCPILOT01","VS","01-701-1028",27,"DIABP","Diastolic Blood Pressure","STANDING","84","mmHg","84",84,"mmHg",NA,NA,NA,8,"WEEK 8",56,"2013-09-10",54,"AFTER STANDING FOR 3 MINUTES",817,"PT3M","PATIENT STANDING"
"CDISCPILOT01","VS","01-701-1028",28,"DIABP","Diastolic Blood Pressure","SUPINE","74","mmHg","74",74,"mmHg",NA,NA,NA,9,"WEEK 12",84,"2013-10-09",83,"AFTER LYING DOWN FOR 5 MINUTES",815,"PT5M","PATIENT SUPINE"
"CDISCPILOT01","VS","01-701-1028",29,"DIABP","Diastolic Blood Pressure","STANDING","83","mmHg","83",83,"mmHg",NA,NA,NA,9,"WEEK 12",84,"2013-10-09",83,"AFTER STANDING FOR 1 MINUTE",816,"PT1M","PATIENT STANDING"
"CDISCPILOT01","VS","01-701-1028",30,"DIABP","Diastolic Blood Pressure","STANDING","80","mmHg","80",80,"mmHg",NA,NA,NA,9,"WEEK 12",84,"2013-10-09",83,"AFTER STANDING FOR 3 MINUTES",817,"PT3M","PATIENT STANDING"
"CDISCPILOT01","VS","01-701-1028",31,"DIABP","Diastolic Blood Pressure","SUPINE","75","mmHg","75",75,"mmHg",NA,NA,NA,10,"WEEK 16",112,"2013-11-06",111,"AFTER LYING DOWN FOR 5 MINUTES",815,"PT5M","PATIENT SUPINE"
"CDISCPILOT01","VS","01-701-1028",32,"DIABP","Diastolic Blood Pressure","STANDING","76","mmHg","76",76,"mmHg",NA,NA,NA,10,"WEEK 16",112,"2013-11-06",111,"AFTER STANDING FOR 1 MINUTE",816,"PT1M","PATIENT STANDING"
"CDISCPILOT01","VS","01-701-1028",33,"DIABP","Diastolic Blood Pressure","STANDING","78","mmHg","78",78,"mmHg",NA,NA,NA,10,"WEEK 16",112,"2013-11-06",111,"AFTER STANDING FOR 3 MINUTES",817,"PT3M","PATIENT STANDING"
"CDISCPILOT01","VS","01-701-1028",34,"DIABP","Diastolic Blood Pressure","SUPINE","79","mmHg","79",79,"mmHg",NA,NA,NA,11,"WEEK 20",140,"2013-12-04",139,"AFTER LYING DOWN FOR 5 MINUTES",815,"PT5M","PATIENT SUPINE"
"CDISCPILOT01","VS","01-701-1028",35,"DIABP","Diastolic Blood Pressure","STANDING","76","mmHg","76",76,"mmHg",NA,NA,NA,11,"WEEK 20",140,"2013-12-04",139,"AFTER STANDING FOR 1 MINUTE",816,"PT1M","PATIENT STANDING"
"CDISCPILOT01","VS","01-701-1028",36,"DIABP","Diastolic Blood Pressure","STANDING","77","mmHg","77",77,"mmHg",NA,NA,NA,11,"WEEK 20",140,"2013-12-04",139,"AFTER STANDING FOR 3 MINUTES",817,"PT3M","PATIENT STANDING"
"CDISCPILOT01","VS","01-701-1028",37,"DIABP","Diastolic Blood Pressure","SUPINE","73","mmHg","73",73,"mmHg",NA,NA,NA,12,"WEEK 24",168,"2014-01-06",172,"AFTER LYING DOWN FOR 5 MINUTES",815,"PT5M","PATIENT SUPINE"
"CDISCPILOT01","VS","01-701-1028",38,"DIABP","Diastolic Blood Pressure","STANDING","72","mmHg","72",72,"mmHg",NA,NA,NA,12,"WEEK 24",168,"2014-01-06",172,"AFTER STANDING FOR 1 MINUTE",816,"PT1M","PATIENT STANDING"
"CDISCPILOT01","VS","01-701-1028",39,"DIABP","Diastolic Blood Pressure","STANDING","77","mmHg","77",77,"mmHg",NA,NA,NA,12,"WEEK 24",168,"2014-01-06",172,"AFTER STANDING FOR 3 MINUTES",817,"PT3M","PATIENT STANDING"
"CDISCPILOT01","VS","01-701-1028",40,"DIABP","Diastolic Blood Pressure","SUPINE","70","mmHg","70",70,"mmHg",NA,NA,NA,13,"WEEK 26",182,"2014-01-14",180,"AFTER LYING DOWN FOR 5 MINUTES",815,"PT5M","PATIENT SUPINE"
"CDISCPILOT01","VS","01-701-1028",41,"DIABP","Diastolic Blood Pressure","STANDING","79","mmHg","79",79,"mmHg",NA,NA,NA,13,"WEEK 26",182,"2014-01-14",180,"AFTER STANDING FOR 1 MINUTE",816,"PT1M","PATIENT STANDING"
"CDISCPILOT01","VS","01-701-1028",42,"DIABP","Diastolic Blood Pressure","STANDING","77","mmHg","77",77,"mmHg",NA,NA,NA,13,"WEEK 26",182,"2014-01-14",180,"AFTER STANDING FOR 3 MINUTES",817,"PT3M","PATIENT STANDING"
"CDISCPILOT01","VS","01-701-1028",43,"HEIGHT","Height",NA,"70.0","IN","177.8",177.8,"cm",NA,NA,NA,1,"SCREENING 1",-7,"2013-07-11",-8,NA,NA,NA,NA
"CDISCPILOT01","VS","01-701-1028",44,"PULSE","Pulse Rate","SUPINE","54","BEATS/MIN","54",54,"BEATS/MIN",NA,NA,NA,1,"SCREENING 1",-7,"2013-07-11",-8,"AFTER LYING DOWN FOR 5 MINUTES",815,"PT5M","PATIENT SUPINE"
"CDISCPILOT01","VS","01-701-1028",45,"PULSE","Pulse Rate","STANDING","59","BEATS/MIN","59",59,"BEATS/MIN",NA,NA,NA,1,"SCREENING 1",-7,"2013-07-11",-8,"AFTER STANDING FOR 1 MINUTE",816,"PT1M","PATIENT STANDING"
"CDISCPILOT01","VS","01-701-1028",46,"PULSE","Pulse Rate","STANDING","59","BEATS/MIN","59",59,"BEATS/MIN",NA,NA,NA,1,"SCREENING 1",-7,"2013-07-11",-8,"AFTER STANDING FOR 3 MINUTES",817,"PT3M","PATIENT STANDING"
"CDISCPILOT01","VS","01-701-1028",47,"PULSE","Pulse Rate","SUPINE","68","BEATS/MIN","68",68,"BEATS/MIN",NA,NA,NA,2,"SCREENING 2",-1,"2013-07-17",-2,"AFTER LYING DOWN FOR 5 MINUTES",815,"PT5M","PATIENT SUPINE"
"CDISCPILOT01","VS","01-701-1028",48,"PULSE","Pulse Rate","STANDING","72","BEATS/MIN","72",72,"BEATS/MIN",NA,NA,NA,2,"SCREENING 2",-1,"2013-07-17",-2,"AFTER STANDING FOR 1 MINUTE",816,"PT1M","PATIENT STANDING"
"CDISCPILOT01","VS","01-701-1028",49,"PULSE","Pulse Rate","STANDING","74","BEATS/MIN","74",74,"BEATS/MIN",NA,NA,NA,2,"SCREENING 2",-1,"2013-07-17",-2,"AFTER STANDING FOR 3 MINUTES",817,"PT3M","PATIENT STANDING"
"CDISCPILOT01","VS","01-701-1028",50,"PULSE","Pulse Rate","SUPINE","62","BEATS/MIN","62",62,"BEATS/MIN",NA,NA,"Y",3,"BASELINE",1,"2013-07-19",1,"AFTER LYING DOWN FOR 5 MINUTES",815,"PT5M","PATIENT SUPINE"
"CDISCPILOT01","VS","01-701-1028",51,"PULSE","Pulse Rate","STANDING","62","BEATS/MIN","62",62,"BEATS/MIN",NA,NA,"Y",3,"BASELINE",1,"2013-07-19",1,"AFTER STANDING FOR 1 MINUTE",816,"PT1M","PATIENT STANDING"
"CDISCPILOT01","VS","01-701-1028",52,"PULSE","Pulse Rate","STANDING","66","BEATS/MIN","66",66,"BEATS/MIN",NA,NA,"Y",3,"BASELINE",1,"2013-07-19",1,"AFTER STANDING FOR 3 MINUTES",817,"PT3M","PATIENT STANDING"
"CDISCPILOT01","VS","01-701-1028",53,"PULSE","Pulse Rate","SUPINE","60","BEATS/MIN","60",60,"BEATS/MIN",NA,NA,NA,3.5,"AMBUL ECG PLACEMENT",13,"2013-07-31",13,"AFTER LYING DOWN FOR 5 MINUTES",815,"PT5M","PATIENT SUPINE"
"CDISCPILOT01","VS","01-701-1028",54,"PULSE","Pulse Rate","STANDING","66","BEATS/MIN","66",66,"BEATS/MIN",NA,NA,NA,3.5,"AMBUL ECG PLACEMENT",13,"2013-07-31",13,"AFTER STANDING FOR 1 MINUTE",816,"PT1M","PATIENT STANDING"
"CDISCPILOT01","VS","01-701-1028",55,"PULSE","Pulse Rate","STANDING","65","BEATS/MIN","65",65,"BEATS/MIN",NA,NA,NA,3.5,"AMBUL ECG PLACEMENT",13,"2013-07-31",13,"AFTER STANDING FOR 3 MINUTES",817,"PT3M","PATIENT STANDING"
"CDISCPILOT01","VS","01-701-1028",56,"PULSE","Pulse Rate","SUPINE","65","BEATS/MIN","65",65,"BEATS/MIN",NA,NA,NA,4,"WEEK 2",14,"2013-08-01",14,"AFTER LYING DOWN FOR 5 MINUTES",815,"PT5M","PATIENT SUPINE"
"CDISCPILOT01","VS","01-701-1028",57,"PULSE","Pulse Rate","STANDING","77","BEATS/MIN","77",77,"BEATS/MIN",NA,NA,NA,4,"WEEK 2",14,"2013-08-01",14,"AFTER STANDING FOR 1 MINUTE",816,"PT1M","PATIENT STANDING"
"CDISCPILOT01","VS","01-701-1028",58,"PULSE","Pulse Rate","STANDING","72","BEATS/MIN","72",72,"BEATS/MIN",NA,NA,NA,4,"WEEK 2",14,"2013-08-01",14,"AFTER STANDING FOR 3 MINUTES",817,"PT3M","PATIENT STANDING"
"CDISCPILOT01","VS","01-701-1028",59,"PULSE","Pulse Rate","SUPINE","68","BEATS/MIN","68",68,"BEATS/MIN",NA,NA,NA,5,"WEEK 4",28,"2013-08-14",27,"AFTER LYING DOWN FOR 5 MINUTES",815,"PT5M","PATIENT SUPINE"
"CDISCPILOT01","VS","01-701-1028",60,"PULSE","Pulse Rate","STANDING","81","BEATS/MIN","81",81,"BEATS/MIN",NA,NA,NA,5,"WEEK 4",28,"2013-08-14",27,"AFTER STANDING FOR 1 MINUTE",816,"PT1M","PATIENT STANDING"
"CDISCPILOT01","VS","01-701-1028",61,"PULSE","Pulse Rate","STANDING","76","BEATS/MIN","76",76,"BEATS/MIN",NA,NA,NA,5,"WEEK 4",28,"2013-08-14",27,"AFTER STANDING FOR 3 MINUTES",817,"PT3M","PATIENT STANDING"
"CDISCPILOT01","VS","01-701-1028",62,"PULSE","Pulse Rate","SUPINE","63","BEATS/MIN","63",63,"BEATS/MIN",NA,NA,NA,6,"AMBUL ECG REMOVAL",30,"2013-08-16",29,"AFTER LYING DOWN FOR 5 MINUTES",815,"PT5M","PATIENT SUPINE"
"CDISCPILOT01","VS","01-701-1028",63,"PULSE","Pulse Rate","STANDING","68","BEATS/MIN","68",68,"BEATS/MIN",NA,NA,NA,6,"AMBUL ECG REMOVAL",30,"2013-08-16",29,"AFTER STANDING FOR 1 MINUTE",816,"PT1M","PATIENT STANDING"
"CDISCPILOT01","VS","01-701-1028",64,"PULSE","Pulse Rate","STANDING","70","BEATS/MIN","70",70,"BEATS/MIN",NA,NA,NA,6,"AMBUL ECG REMOVAL",30,"2013-08-16",29,"AFTER STANDING FOR 3 MINUTES",817,"PT3M","PATIENT STANDING"
"CDISCPILOT01","VS","01-701-1028",65,"PULSE","Pulse Rate","SUPINE","56","BEATS/MIN","56",56,"BEATS/MIN",NA,NA,NA,7,"WEEK 6",42,"2013-08-29",42,"AFTER LYING DOWN FOR 5 MINUTES",815,"PT5M","PATIENT SUPINE"
"CDISCPILOT01","VS","01-701-1028",66,"PULSE","Pulse Rate","STANDING","60","BEATS/MIN","60",60,"BEATS/MIN",NA,NA,NA,7,"WEEK 6",42,"2013-08-29",42,"AFTER STANDING FOR 1 MINUTE",816,"PT1M","PATIENT STANDING"
"CDISCPILOT01","VS","01-701-1028",67,"PULSE","Pulse Rate","STANDING","62","BEATS/MIN","62",62,"BEATS/MIN",NA,NA,NA,7,"WEEK 6",42,"2013-08-29",42,"AFTER STANDING FOR 3 MINUTES",817,"PT3M","PATIENT STANDING"
"CDISCPILOT01","VS","01-701-1028",68,"PULSE","Pulse Rate","SUPINE","67","BEATS/MIN","67",67,"BEATS/MIN",NA,NA,NA,8,"WEEK 8",56,"2013-09-10",54,"AFTER LYING DOWN FOR 5 MINUTES",815,"PT5M","PATIENT SUPINE"
"CDISCPILOT01","VS","01-701-1028",69,"PULSE","Pulse Rate","STANDING","76","BEATS/MIN","76",76,"BEATS/MIN",NA,NA,NA,8,"WEEK 8",56,"2013-09-10",54,"AFTER STANDING FOR 1 MINUTE",816,"PT1M","PATIENT STANDING"
"CDISCPILOT01","VS","01-701-1028",70,"PULSE","Pulse Rate","STANDING","81","BEATS/MIN","81",81,"BEATS/MIN",NA,NA,NA,8,"WEEK 8",56,"2013-09-10",54,"AFTER STANDING FOR 3 MINUTES",817,"PT3M","PATIENT STANDING"
"CDISCPILOT01","VS","01-701-1028",71,"PULSE","Pulse Rate","SUPINE","61","BEATS/MIN","61",61,"BEATS/MIN",NA,NA,NA,9,"WEEK 12",84,"2013-10-09",83,"AFTER LYING DOWN FOR 5 MINUTES",815,"PT5M","PATIENT SUPINE"
"CDISCPILOT01","VS","01-701-1028",72,"PULSE","Pulse Rate","STANDING","64","BEATS/MIN","64",64,"BEATS/MIN",NA,NA,NA,9,"WEEK 12",84,"2013-10-09",83,"AFTER STANDING FOR 1 MINUTE",816,"PT1M","PATIENT STANDING"
"CDISCPILOT01","VS","01-701-1028",73,"PULSE","Pulse Rate","STANDING","70","BEATS/MIN","70",70,"BEATS/MIN",NA,NA,NA,9,"WEEK 12",84,"2013-10-09",83,"AFTER STANDING FOR 3 MINUTES",817,"PT3M","PATIENT STANDING"
"CDISCPILOT01","VS","01-701-1028",74,"PULSE","Pulse Rate","SUPINE","60","BEATS/MIN","60",60,"BEATS/MIN",NA,NA,NA,10,"WEEK 16",112,"2013-11-06",111,"AFTER LYING DOWN FOR 5 MINUTES",815,"PT5M","PATIENT SUPINE"
"CDISCPILOT01","VS","01-701-1028",75,"PULSE","Pulse Rate","STANDING","70","BEATS/MIN","70",70,"BEATS/MIN",NA,NA,NA,10,"WEEK 16",112,"2013-11-06",111,"AFTER STANDING FOR 1 MINUTE",816,"PT1M","PATIENT STANDING"
"CDISCPILOT01","VS","01-701-1028",76,"PULSE","Pulse Rate","STANDING","69","BEATS/MIN","69",69,"BEATS/MIN",NA,NA,NA,10,"WEEK 16",112,"2013-11-06",111,"AFTER STANDING FOR 3 MINUTES",817,"PT3M","PATIENT STANDING"
"CDISCPILOT01","VS","01-701-1028",77,"PULSE","Pulse Rate","SUPINE","60","BEATS/MIN","60",60,"BEATS/MIN",NA,NA,NA,11,"WEEK 20",140,"2013-12-04",139,"AFTER LYING DOWN FOR 5 MINUTES",815,"PT5M","PATIENT SUPINE"
"CDISCPILOT01","VS","01-701-1028",78,"PULSE","Pulse Rate","STANDING","67","BEATS/MIN","67",67,"BEATS/MIN",NA,NA,NA,11,"WEEK 20",140,"2013-12-04",139,"AFTER STANDING FOR 1 MINUTE",816,"PT1M","PATIENT STANDING"
"CDISCPILOT01","VS","01-701-1028",79,"PULSE","Pulse Rate","STANDING","69","BEATS/MIN","69",69,"BEATS/MIN",NA,NA,NA,11,"WEEK 20",140,"2013-12-04",139,"AFTER STANDING FOR 3 MINUTES",817,"PT3M","PATIENT STANDING"
"CDISCPILOT01","VS","01-701-1028",80,"PULSE","Pulse Rate","SUPINE","62","BEATS/MIN","62",62,"BEATS/MIN",NA,NA,NA,12,"WEEK 24",168,"2014-01-06",172,"AFTER LYING DOWN FOR 5 MINUTES",815,"PT5M","PATIENT SUPINE"
"CDISCPILOT01","VS","01-701-1028",81,"PULSE","Pulse Rate","STANDING","72","BEATS/MIN","72",72,"BEATS/MIN",NA,NA,NA,12,"WEEK 24",168,"2014-01-06",172,"AFTER STANDING FOR 1 MINUTE",816,"PT1M","PATIENT STANDING"
"CDISCPILOT01","VS","01-701-1028",82,"PULSE","Pulse Rate","STANDING","73","BEATS/MIN","73",73,"BEATS/MIN",NA,NA,NA,12,"WEEK 24",168,"2014-01-06",172,"AFTER STANDING FOR 3 MINUTES",817,"PT3M","PATIENT STANDING"
"CDISCPILOT01","VS","01-701-1028",83,"PULSE","Pulse Rate","SUPINE","53","BEATS/MIN","53",53,"BEATS/MIN",NA,NA,NA,13,"WEEK 26",182,"2014-01-14",180,"AFTER LYING DOWN FOR 5 MINUTES",815,"PT5M","PATIENT SUPINE"
"CDISCPILOT01","VS","01-701-1028",84,"PULSE","Pulse Rate","STANDING","58","BEATS/MIN","58",58,"BEATS/MIN",NA,NA,NA,13,"WEEK 26",182,"2014-01-14",180,"AFTER STANDING FOR 1 MINUTE",816,"PT1M","PATIENT STANDING"
"CDISCPILOT01","VS","01-701-1028",85,"PULSE","Pulse Rate","STANDING","59","BEATS/MIN","59",59,"BEATS/MIN",NA,NA,NA,13,"WEEK 26",182,"2014-01-14",180,"AFTER STANDING FOR 3 MINUTES",817,"PT3M","PATIENT STANDING"
"CDISCPILOT01","VS","01-701-1028",86,"SYSBP","Systolic Blood Pressure","SUPINE","143","mmHg","143",143,"mmHg",NA,NA,NA,1,"SCREENING 1",-7,"2013-07-11",-8,"AFTER LYING DOWN FOR 5 MINUTES",815,"PT5M","PATIENT SUPINE"
"CDISCPILOT01","VS","01-701-1028",87,"SYSBP","Systolic Blood Pressure","STANDING","140","mmHg","140",140,"mmHg",NA,NA,NA,1,"SCREENING 1",-7,"2013-07-11",-8,"AFTER STANDING FOR 1 MINUTE",816,"PT1M","PATIENT STANDING"
"CDISCPILOT01","VS","01-701-1028",88,"SYSBP","Systolic Blood Pressure","STANDING","132","mmHg","132",132,"mmHg",NA,NA,NA,1,"SCREENING 1",-7,"2013-07-11",-8,"AFTER STANDING FOR 3 MINUTES",817,"PT3M","PATIENT STANDING"
"CDISCPILOT01","VS","01-701-1028",89,"SYSBP","Systolic Blood Pressure","SUPINE","122","mmHg","122",122,"mmHg",NA,NA,NA,2,"SCREENING 2",-1,"2013-07-17",-2,"AFTER LYING DOWN FOR 5 MINUTES",815,"PT5M","PATIENT SUPINE"
"CDISCPILOT01","VS","01-701-1028",90,"SYSBP","Systolic Blood Pressure","STANDING","142","mmHg","142",142,"mmHg",NA,NA,NA,2,"SCREENING 2",-1,"2013-07-17",-2,"AFTER STANDING FOR 1 MINUTE",816,"PT1M","PATIENT STANDING"
"CDISCPILOT01","VS","01-701-1028",91,"SYSBP","Systolic Blood Pressure","STANDING","132","mmHg","132",132,"mmHg",NA,NA,NA,2,"SCREENING 2",-1,"2013-07-17",-2,"AFTER STANDING FOR 3 MINUTES",817,"PT3M","PATIENT STANDING"
"CDISCPILOT01","VS","01-701-1028",92,"SYSBP","Systolic Blood Pressure","SUPINE","138","mmHg","138",138,"mmHg",NA,NA,"Y",3,"BASELINE",1,"2013-07-19",1,"AFTER LYING DOWN FOR 5 MINUTES",815,"PT5M","PATIENT SUPINE"
"CDISCPILOT01","VS","01-701-1028",93,"SYSBP","Systolic Blood Pressure","STANDING","145","mmHg","145",145,"mmHg",NA,NA,"Y",3,"BASELINE",1,"2013-07-19",1,"AFTER STANDING FOR 1 MINUTE",816,"PT1M","PATIENT STANDING"
"CDISCPILOT01","VS","01-701-1028",94,"SYSBP","Systolic Blood Pressure","STANDING","139","mmHg","139",139,"mmHg",NA,NA,"Y",3,"BASELINE",1,"2013-07-19",1,"AFTER STANDING FOR 3 MINUTES",817,"PT3M","PATIENT STANDING"
"CDISCPILOT01","VS","01-701-1028",95,"SYSBP","Systolic Blood Pressure","SUPINE","138","mmHg","138",138,"mmHg",NA,NA,NA,3.5,"AMBUL ECG PLACEMENT",13,"2013-07-31",13,"AFTER LYING DOWN FOR 5 MINUTES",815,"PT5M","PATIENT SUPINE"
"CDISCPILOT01","VS","01-701-1028",96,"SYSBP","Systolic Blood Pressure","STANDING","137","mmHg","137",137,"mmHg",NA,NA,NA,3.5,"AMBUL ECG PLACEMENT",13,"2013-07-31",13,"AFTER STANDING FOR 1 MINUTE",816,"PT1M","PATIENT STANDING"
"CDISCPILOT01","VS","01-701-1028",97,"SYSBP","Systolic Blood Pressure","STANDING","145","mmHg","145",145,"mmHg",NA,NA,NA,3.5,"AMBUL ECG PLACEMENT",13,"2013-07-31",13,"AFTER STANDING FOR 3 MINUTES",817,"PT3M","PATIENT STANDING"
"CDISCPILOT01","VS","01-701-1028",98,"SYSBP","Systolic Blood Pressure","SUPINE","134","mmHg","134",134,"mmHg",NA,NA,NA,4,"WEEK 2",14,"2013-08-01",14,"AFTER LYING DOWN FOR 5 MINUTES",815,"PT5M","PATIENT SUPINE"
"CDISCPILOT01","VS","01-701-1028",99,"SYSBP","Systolic Blood Pressure","STANDING","138","mmHg","138",138,"mmHg",NA,NA,NA,4,"WEEK 2",14,"2013-08-01",14,"AFTER STANDING FOR 1 MINUTE",816,"PT1M","PATIENT STANDING"
"CDISCPILOT01","VS","01-701-1028",100,"SYSBP","Systolic Blood Pressure","STANDING","131","mmHg","131",131,"mmHg",NA,NA,NA,4,"WEEK 2",14,"2013-08-01",14,"AFTER STANDING FOR 3 MINUTES",817,"PT3M","PATIENT STANDING"
"CDISCPILOT01","VS","01-701-1028",101,"SYSBP","Systolic Blood Pressure","SUPINE","130","mmHg","130",130,"mmHg",NA,NA,NA,5,"WEEK 4",28,"2013-08-14",27,"AFTER LYING DOWN FOR 5 MINUTES",815,"PT5M","PATIENT SUPINE"
"CDISCPILOT01","VS","01-701-1028",102,"SYSBP","Systolic Blood Pressure","STANDING","130","mmHg","130",130,"mmHg",NA,NA,NA,5,"WEEK 4",28,"2013-08-14",27,"AFTER STANDING FOR 1 MINUTE",816,"PT1M","PATIENT STANDING"
"CDISCPILOT01","VS","01-701-1028",103,"SYSBP","Systolic Blood Pressure","STANDING","138","mmHg","138",138,"mmHg",NA,NA,NA,5,"WEEK 4",28,"2013-08-14",27,"AFTER STANDING FOR 3 MINUTES",817,"PT3M","PATIENT STANDING"
"CDISCPILOT01","VS","01-701-1028",104,"SYSBP","Systolic Blood Pressure","SUPINE","138","mmHg","138",138,"mmHg",NA,NA,NA,6,"AMBUL ECG REMOVAL",30,"2013-08-16",29,"AFTER LYING DOWN FOR 5 MINUTES",815,"PT5M","PATIENT SUPINE"
"CDISCPILOT01","VS","01-701-1028",105,"SYSBP","Systolic Blood Pressure","STANDING","138","mmHg","138",138,"mmHg",NA,NA,NA,6,"AMBUL ECG REMOVAL",30,"2013-08-16",29,"AFTER STANDING FOR 1 MINUTE",816,"PT1M","PATIENT STANDING"
"CDISCPILOT01","VS","01-701-1028",106,"SYSBP","Systolic Blood Pressure","STANDING","146","mmHg","146",146,"mmHg",NA,NA,NA,6,"AMBUL ECG REMOVAL",30,"2013-08-16",29,"AFTER STANDING FOR 3 MINUTES",817,"PT3M","PATIENT STANDING"
"CDISCPILOT01","VS","01-701-1028",107,"SYSBP","Systolic Blood Pressure","SUPINE","131","mmHg","131",131,"mmHg",NA,NA,NA,7,"WEEK 6",42,"2013-08-29",42,"AFTER LYING DOWN FOR 5 MINUTES",815,"PT5M","PATIENT SUPINE"
"CDISCPILOT01","VS","01-701-1028",108,"SYSBP","Systolic Blood Pressure","STANDING","131","mmHg","131",131,"mmHg",NA,NA,NA,7,"WEEK 6",42,"2013-08-29",42,"AFTER STANDING FOR 1 MINUTE",816,"PT1M","PATIENT STANDING"
"CDISCPILOT01","VS","01-701-1028",109,"SYSBP","Systolic Blood Pressure","STANDING","132","mmHg","132",132,"mmHg",NA,NA,NA,7,"WEEK 6",42,"2013-08-29",42,"AFTER STANDING FOR 3 MINUTES",817,"PT3M","PATIENT STANDING"
"CDISCPILOT01","VS","01-701-1028",110,"SYSBP","Systolic Blood Pressure","SUPINE","137","mmHg","137",137,"mmHg",NA,NA,NA,8,"WEEK 8",56,"2013-09-10",54,"AFTER LYING DOWN FOR 5 MINUTES",815,"PT5M","PATIENT SUPINE"
"CDISCPILOT01","VS","01-701-1028",111,"SYSBP","Systolic Blood Pressure","STANDING","146","mmHg","146",146,"mmHg",NA,NA,NA,8,"WEEK 8",56,"2013-09-10",54,"AFTER STANDING FOR 1 MINUTE",816,"PT1M","PATIENT STANDING"
"CDISCPILOT01","VS","01-701-1028",112,"SYSBP","Systolic Blood Pressure","STANDING","130","mmHg","130",130,"mmHg",NA,NA,NA,8,"WEEK 8",56,"2013-09-10",54,"AFTER STANDING FOR 3 MINUTES",817,"PT3M","PATIENT STANDING"
"CDISCPILOT01","VS","01-701-1028",113,"SYSBP","Systolic Blood Pressure","SUPINE","128","mmHg","128",128,"mmHg",NA,NA,NA,9,"WEEK 12",84,"2013-10-09",83,"AFTER LYING DOWN FOR 5 MINUTES",815,"PT5M","PATIENT SUPINE"
"CDISCPILOT01","VS","01-701-1028",114,"SYSBP","Systolic Blood Pressure","STANDING","137","mmHg","137",137,"mmHg",NA,NA,NA,9,"WEEK 12",84,"2013-10-09",83,"AFTER STANDING FOR 1 MINUTE",816,"PT1M","PATIENT STANDING"
"CDISCPILOT01","VS","01-701-1028",115,"SYSBP","Systolic Blood Pressure","STANDING","138","mmHg","138",138,"mmHg",NA,NA,NA,9,"WEEK 12",84,"2013-10-09",83,"AFTER STANDING FOR 3 MINUTES",817,"PT3M","PATIENT STANDING"
"CDISCPILOT01","VS","01-701-1028",116,"SYSBP","Systolic Blood Pressure","SUPINE","122","mmHg","122",122,"mmHg",NA,NA,NA,10,"WEEK 16",112,"2013-11-06",111,"AFTER LYING DOWN FOR 5 MINUTES",815,"PT5M","PATIENT SUPINE"
"CDISCPILOT01","VS","01-701-1028",117,"SYSBP","Systolic Blood Pressure","STANDING","130","mmHg","130",130,"mmHg",NA,NA,NA,10,"WEEK 16",112,"2013-11-06",111,"AFTER STANDING FOR 1 MINUTE",816,"PT1M","PATIENT STANDING"
"CDISCPILOT01","VS","01-701-1028",118,"SYSBP","Systolic Blood Pressure","STANDING","132","mmHg","132",132,"mmHg",NA,NA,NA,10,"WEEK 16",112,"2013-11-06",111,"AFTER STANDING FOR 3 MINUTES",817,"PT3M","PATIENT STANDING"
"CDISCPILOT01","VS","01-701-1028",119,"SYSBP","Systolic Blood Pressure","SUPINE","129","mmHg","129",129,"mmHg",NA,NA,NA,11,"WEEK 20",140,"2013-12-04",139,"AFTER LYING DOWN FOR 5 MINUTES",815,"PT5M","PATIENT SUPINE"
"CDISCPILOT01","VS","01-701-1028",120,"SYSBP","Systolic Blood Pressure","STANDING","123","mmHg","123",123,"mmHg",NA,NA,NA,11,"WEEK 20",140,"2013-12-04",139,"AFTER STANDING FOR 1 MINUTE",816,"PT1M","PATIENT STANDING"
"CDISCPILOT01","VS","01-701-1028",121,"SYSBP","Systolic Blood Pressure","STANDING","131","mmHg","131",131,"mmHg",NA,NA,NA,11,"WEEK 20",140,"2013-12-04",139,"AFTER STANDING FOR 3 MINUTES",817,"PT3M","PATIENT STANDING"
"CDISCPILOT01","VS","01-701-1028",122,"SYSBP","Systolic Blood Pressure","SUPINE","130","mmHg","130",130,"mmHg",NA,NA,NA,12,"WEEK 24",168,"2014-01-06",172,"AFTER LYING DOWN FOR 5 MINUTES",815,"PT5M","PATIENT SUPINE"
"CDISCPILOT01","VS","01-701-1028",123,"SYSBP","Systolic Blood Pressure","STANDING","133","mmHg","133",133,"mmHg",NA,NA,NA,12,"WEEK 24",168,"2014-01-06",172,"AFTER STANDING FOR 1 MINUTE",816,"PT1M","PATIENT STANDING"
"CDISCPILOT01","VS","01-701-1028",124,"SYSBP","Systolic Blood Pressure","STANDING","131","mmHg","131",131,"mmHg",NA,NA,NA,12,"WEEK 24",168,"2014-01-06",172,"AFTER STANDING FOR 3 MINUTES",817,"PT3M","PATIENT STANDING"
"CDISCPILOT01","VS","01-701-1028",125,"SYSBP","Systolic Blood Pressure","SUPINE","131","mmHg","131",131,"mmHg",NA,NA,NA,13,"WEEK 26",182,"2014-01-14",180,"AFTER LYING DOWN FOR 5 MINUTES",815,"PT5M","PATIENT SUPINE"
"CDISCPILOT01","VS","01-701-1028",126,"SYSBP","Systolic Blood Pressure","STANDING","118","mmHg","118",118,"mmHg",NA,NA,NA,13,"WEEK 26",182,"2014-01-14",180,"AFTER STANDING FOR 1 MINUTE",816,"PT1M","PATIENT STANDING"
"CDISCPILOT01","VS","01-701-1028",127,"SYSBP","Systolic Blood Pressure","STANDING","131","mmHg","131",131,"mmHg",NA,NA,NA,13,"WEEK 26",182,"2014-01-14",180,"AFTER STANDING FOR 3 MINUTES",817,"PT3M","PATIENT STANDING"
"CDISCPILOT01","VS","01-701-1028",128,"TEMP","Temperature",NA,"98.5","F","36.94",36.94,"C",NA,"ORAL CAVITY",NA,1,"SCREENING 1",-7,"2013-07-11",-8,NA,NA,NA,NA
"CDISCPILOT01","VS","01-701-1028",129,"TEMP","Temperature",NA,"96.7","F","35.94",35.94,"C",NA,"ORAL CAVITY",NA,2,"SCREENING 2",-1,"2013-07-17",-2,NA,NA,NA,NA
"CDISCPILOT01","VS","01-701-1028",130,"TEMP","Temperature",NA,"98.6","F","37",37,"C",NA,"ORAL CAVITY","Y",3,"BASELINE",1,"2013-07-19",1,NA,NA,NA,NA
"CDISCPILOT01","VS","01-701-1028",131,"TEMP","Temperature",NA,"98.2","F","36.78",36.78,"C",NA,"ORAL CAVITY",NA,3.5,"AMBUL ECG PLACEMENT",13,"2013-07-31",13,NA,NA,NA,NA
"CDISCPILOT01","VS","01-701-1028",132,"TEMP","Temperature",NA,"99.0","F","37.22",37.22,"C",NA,"ORAL CAVITY",NA,4,"WEEK 2",14,"2013-08-01",14,NA,NA,NA,NA
"CDISCPILOT01","VS","01-701-1028",133,"TEMP","Temperature",NA,"98.5","F","36.94",36.94,"C",NA,"ORAL CAVITY",NA,5,"WEEK 4",28,"2013-08-14",27,NA,NA,NA,NA
"CDISCPILOT01","VS","01-701-1028",134,"TEMP","Temperature",NA,"98.2","F","36.78",36.78,"C",NA,"ORAL CAVITY",NA,6,"AMBUL ECG REMOVAL",30,"2013-08-16",29,NA,NA,NA,NA
"CDISCPILOT01","VS","01-701-1028",135,"TEMP","Temperature",NA,"97.7","F","36.5",36.5,"C",NA,"ORAL CAVITY",NA,7,"WEEK 6",42,"2013-08-29",42,NA,NA,NA,NA
"CDISCPILOT01","VS","01-701-1028",136,"TEMP","Temperature",NA,"98.1","F","36.72",36.72,"C",NA,"ORAL CAVITY",NA,8,"WEEK 8",56,"2013-09-10",54,NA,NA,NA,NA
"CDISCPILOT01","VS","01-701-1028",137,"TEMP","Temperature",NA,"98.3","F","36.83",36.83,"C",NA,"ORAL CAVITY",NA,9,"WEEK 12",84,"2013-10-09",83,NA,NA,NA,NA
"CDISCPILOT01","VS","01-701-1028",138,"TEMP","Temperature",NA,"97.8","F","36.56",36.56,"C",NA,"ORAL CAVITY",NA,10,"WEEK 16",112,"2013-11-06",111,NA,NA,NA,NA
"CDISCPILOT01","VS","01-701-1028",139,"TEMP","Temperature",NA,"97.6","F","36.44",36.44,"C",NA,"ORAL CAVITY",NA,11,"WEEK 20",140,"2013-12-04",139,NA,NA,NA,NA
"CDISCPILOT01","VS","01-701-1028",140,"TEMP","Temperature",NA,"98.8","F","37.11",37.11,"C",NA,"ORAL CAVITY",NA,12,"WEEK 24",168,"2014-01-06",172,NA,NA,NA,NA
"CDISCPILOT01","VS","01-701-1028",141,"TEMP","Temperature",NA,"97.8","F","36.56",36.56,"C",NA,"ORAL CAVITY",NA,13,"WEEK 26",182,"2014-01-14",180,NA,NA,NA,NA
"CDISCPILOT01","VS","01-701-1028",142,"WEIGHT","Weight",NA,"218.0","LB","98.88",98.88,"kg",NA,NA,NA,1,"SCREENING 1",-7,"2013-07-11",-8,NA,NA,NA,NA
"CDISCPILOT01","VS","01-701-1028",143,"WEIGHT","Weight",NA,"219.0","LB","99.34",99.34,"kg",NA,NA,"Y",3,"BASELINE",1,"2013-07-19",1,NA,NA,NA,NA
"CDISCPILOT01","VS","01-701-1028",144,"WEIGHT","Weight",NA,"219.0","LB","99.34",99.34,"kg",NA,NA,NA,4,"WEEK 2",14,"2013-08-01",14,NA,NA,NA,NA
"CDISCPILOT01","VS","01-701-1028",145,"WEIGHT","Weight",NA,"218.0","LB","98.88",98.88,"kg",NA,NA,NA,5,"WEEK 4",28,"2013-08-14",27,NA,NA,NA,NA
"CDISCPILOT01","VS","01-701-1028",146,"WEIGHT","Weight",NA,"217.0","LB","98.43",98.43,"kg",NA,NA,NA,7,"WEEK 6",42,"2013-08-29",42,NA,NA,NA,NA
"CDISCPILOT01","VS","01-701-1028",147,"WEIGHT","Weight",NA,"219.0","LB","99.34",99.34,"kg",NA,NA,NA,8,"WEEK 8",56,"2013-09-10",54,NA,NA,NA,NA
"CDISCPILOT01","VS","01-701-1028",148,"WEIGHT","Weight",NA,"218.0","LB","98.88",98.88,"kg",NA,NA,NA,9,"WEEK 12",84,"2013-10-09",83,NA,NA,NA,NA
"CDISCPILOT01","VS","01-701-1028",149,"WEIGHT","Weight",NA,"220.0","LB","99.79",99.79,"kg",NA,NA,NA,10,"WEEK 16",112,"2013-11-06",111,NA,NA,NA,NA
"CDISCPILOT01","VS","01-701-1028",150,"WEIGHT","Weight",NA,"220.0","LB","99.79",99.79,"kg",NA,NA,NA,11,"WEEK 20",140,"2013-12-04",139,NA,NA,NA,NA
"CDISCPILOT01","VS","01-701-1028",151,"WEIGHT","Weight",NA,"219.0","LB","99.34",99.34,"kg",NA,NA,NA,12,"WEEK 24",168,"2014-01-06",172,NA,NA,NA,NA
"CDISCPILOT01","VS","01-701-1028",152,"WEIGHT","Weight",NA,"220.0","LB","99.79",99.79,"kg",NA,NA,NA,13,"WEEK 26",182,"2014-01-14",180,NA,NA,NA,NA
"CDISCPILOT01","VS","01-701-1033",1,"DIABP","Diastolic Blood Pressure","SUPINE","82","mmHg","82",82,"mmHg",NA,NA,NA,1,"SCREENING 1",-7,"2014-03-10",-8,"AFTER LYING DOWN FOR 5 MINUTES",815,"PT5M","PATIENT SUPINE"
"CDISCPILOT01","VS","01-701-1033",2,"DIABP","Diastolic Blood Pressure","STANDING","67","mmHg","67",67,"mmHg",NA,NA,NA,1,"SCREENING 1",-7,"2014-03-10",-8,"AFTER STANDING FOR 1 MINUTE",816,"PT1M","PATIENT STANDING"
"CDISCPILOT01","VS","01-701-1033",3,"DIABP","Diastolic Blood Pressure","STANDING","72","mmHg","72",72,"mmHg",NA,NA,NA,1,"SCREENING 1",-7,"2014-03-10",-8,"AFTER STANDING FOR 3 MINUTES",817,"PT3M","PATIENT STANDING"
"CDISCPILOT01","VS","01-701-1033",4,"DIABP","Diastolic Blood Pressure","SUPINE","69","mmHg","69",69,"mmHg",NA,NA,NA,2,"SCREENING 2",-1,"2014-03-16",-2,"AFTER LYING DOWN FOR 5 MINUTES",815,"PT5M","PATIENT SUPINE"
"CDISCPILOT01","VS","01-701-1033",5,"DIABP","Diastolic Blood Pressure","STANDING","60","mmHg","60",60,"mmHg",NA,NA,NA,2,"SCREENING 2",-1,"2014-03-16",-2,"AFTER STANDING FOR 1 MINUTE",816,"PT1M","PATIENT STANDING"
"CDISCPILOT01","VS","01-701-1033",6,"DIABP","Diastolic Blood Pressure","STANDING","62","mmHg","62",62,"mmHg",NA,NA,NA,2,"SCREENING 2",-1,"2014-03-16",-2,"AFTER STANDING FOR 3 MINUTES",817,"PT3M","PATIENT STANDING"
"CDISCPILOT01","VS","01-701-1033",7,"DIABP","Diastolic Blood Pressure","SUPINE","83","mmHg","83",83,"mmHg",NA,NA,"Y",3,"BASELINE",1,"2014-03-18",1,"AFTER LYING DOWN FOR 5 MINUTES",815,"PT5M","PATIENT SUPINE"
"CDISCPILOT01","VS","01-701-1033",8,"DIABP","Diastolic Blood Pressure","STANDING","67","mmHg","67",67,"mmHg",NA,NA,"Y",3,"BASELINE",1,"2014-03-18",1,"AFTER STANDING FOR 1 MINUTE",816,"PT1M","PATIENT STANDING"
"CDISCPILOT01","VS","01-701-1033",9,"DIABP","Diastolic Blood Pressure","STANDING","70","mmHg","70",70,"mmHg",NA,NA,"Y",3,"BASELINE",1,"2014-03-18",1,"AFTER STANDING FOR 3 MINUTES",817,"PT3M","PATIENT STANDING"
"CDISCPILOT01","VS","01-701-1033",10,"DIABP","Diastolic Blood Pressure","SUPINE","84","mmHg","84",84,"mmHg",NA,NA,NA,3.5,"AMBUL ECG PLACEMENT",13,"2014-03-31",14,"AFTER LYING DOWN FOR 5 MINUTES",815,"PT5M","PATIENT SUPINE"
"CDISCPILOT01","VS","01-701-1033",11,"DIABP","Diastolic Blood Pressure","STANDING","81","mmHg","81",81,"mmHg",NA,NA,NA,3.5,"AMBUL ECG PLACEMENT",13,"2014-03-31",14,"AFTER STANDING FOR 1 MINUTE",816,"PT1M","PATIENT STANDING"
"CDISCPILOT01","VS","01-701-1033",12,"DIABP","Diastolic Blood Pressure","STANDING","85","mmHg","85",85,"mmHg",NA,NA,NA,3.5,"AMBUL ECG PLACEMENT",13,"2014-03-31",14,"AFTER STANDING FOR 3 MINUTES",817,"PT3M","PATIENT STANDING"
"CDISCPILOT01","VS","01-701-1033",13,"DIABP","Diastolic Blood Pressure","SUPINE","84","mmHg","84",84,"mmHg",NA,NA,NA,4,"WEEK 2",14,"2014-04-01",15,"AFTER LYING DOWN FOR 5 MINUTES",815,"PT5M","PATIENT SUPINE"
"CDISCPILOT01","VS","01-701-1033",14,"DIABP","Diastolic Blood Pressure","STANDING","72","mmHg","72",72,"mmHg",NA,NA,NA,4,"WEEK 2",14,"2014-04-01",15,"AFTER STANDING FOR 1 MINUTE",816,"PT1M","PATIENT STANDING"
"CDISCPILOT01","VS","01-701-1033",15,"DIABP","Diastolic Blood Pressure","STANDING","76","mmHg","76",76,"mmHg",NA,NA,NA,4,"WEEK 2",14,"2014-04-01",15,"AFTER STANDING FOR 3 MINUTES",817,"PT3M","PATIENT STANDING"
"CDISCPILOT01","VS","01-701-1033",16,"DIABP","Diastolic Blood Pressure","SUPINE","76","mmHg","76",76,"mmHg",NA,NA,NA,5,"WEEK 4",28,"2014-04-14",28,"AFTER LYING DOWN FOR 5 MINUTES",815,"PT5M","PATIENT SUPINE"
"CDISCPILOT01","VS","01-701-1033",17,"DIABP","Diastolic Blood Pressure","STANDING","67","mmHg","67",67,"mmHg",NA,NA,NA,5,"WEEK 4",28,"2014-04-14",28,"AFTER STANDING FOR 1 MINUTE",816,"PT1M","PATIENT STANDING"
"CDISCPILOT01","VS","01-701-1033",18,"DIABP","Diastolic Blood Pressure","STANDING","67","mmHg","67",67,"mmHg",NA,NA,NA,5,"WEEK 4",28,"2014-04-14",28,"AFTER STANDING FOR 3 MINUTES",817,"PT3M","PATIENT STANDING"
"CDISCPILOT01","VS","01-701-1033",19,"DIABP","Diastolic Blood Pressure","SUPINE","79","mmHg","79",79,"mmHg",NA,NA,NA,201,"RETRIEVAL",168,"2014-09-15",182,"AFTER LYING DOWN FOR 5 MINUTES",815,"PT5M","PATIENT SUPINE"
"CDISCPILOT01","VS","01-701-1033",20,"DIABP","Diastolic Blood Pressure","STANDING","71","mmHg","71",71,"mmHg",NA,NA,NA,201,"RETRIEVAL",168,"2014-09-15",182,"AFTER STANDING FOR 1 MINUTE",816,"PT1M","PATIENT STANDING"
"CDISCPILOT01","VS","01-701-1033",21,"DIABP","Diastolic Blood Pressure","STANDING","60","mmHg","60",60,"mmHg",NA,NA,NA,201,"RETRIEVAL",168,"2014-09-15",182,"AFTER STANDING FOR 3 MINUTES",817,"PT3M","PATIENT STANDING"
"CDISCPILOT01","VS","01-701-1033",22,"HEIGHT","Height",NA,"69.0","IN","175.26",175.26,"cm",NA,NA,NA,1,"SCREENING 1",-7,"2014-03-10",-8,NA,NA,NA,NA
"CDISCPILOT01","VS","01-701-1033",23,"PULSE","Pulse Rate","SUPINE","59","BEATS/MIN","59",59,"BEATS/MIN",NA,NA,NA,1,"SCREENING 1",-7,"2014-03-10",-8,"AFTER LYING DOWN FOR 5 MINUTES",815,"PT5M","PATIENT SUPINE"
"CDISCPILOT01","VS","01-701-1033",24,"PULSE","Pulse Rate","STANDING","70","BEATS/MIN","70",70,"BEATS/MIN",NA,NA,NA,1,"SCREENING 1",-7,"2014-03-10",-8,"AFTER STANDING FOR 1 MINUTE",816,"PT1M","PATIENT STANDING"
"CDISCPILOT01","VS","01-701-1033",25,"PULSE","Pulse Rate","STANDING","67","BEATS/MIN","67",67,"BEATS/MIN",NA,NA,NA,1,"SCREENING 1",-7,"2014-03-10",-8,"AFTER STANDING FOR 3 MINUTES",817,"PT3M","PATIENT STANDING"
"CDISCPILOT01","VS","01-701-1033",26,"PULSE","Pulse Rate","SUPINE","67","BEATS/MIN","67",67,"BEATS/MIN",NA,NA,NA,2,"SCREENING 2",-1,"2014-03-16",-2,"AFTER LYING DOWN FOR 5 MINUTES",815,"PT5M","PATIENT SUPINE"
"CDISCPILOT01","VS","01-701-1033",27,"PULSE","Pulse Rate","STANDING","80","BEATS/MIN","80",80,"BEATS/MIN",NA,NA,NA,2,"SCREENING 2",-1,"2014-03-16",-2,"AFTER STANDING FOR 1 MINUTE",816,"PT1M","PATIENT STANDING"
"CDISCPILOT01","VS","01-701-1033",28,"PULSE","Pulse Rate","STANDING","82","BEATS/MIN","82",82,"BEATS/MIN",NA,NA,NA,2,"SCREENING 2",-1,"2014-03-16",-2,"AFTER STANDING FOR 3 MINUTES",817,"PT3M","PATIENT STANDING"
"CDISCPILOT01","VS","01-701-1033",29,"PULSE","Pulse Rate","SUPINE","55","BEATS/MIN","55",55,"BEATS/MIN",NA,NA,"Y",3,"BASELINE",1,"2014-03-18",1,"AFTER LYING DOWN FOR 5 MINUTES",815,"PT5M","PATIENT SUPINE"
"CDISCPILOT01","VS","01-701-1033",30,"PULSE","Pulse Rate","STANDING","64","BEATS/MIN","64",64,"BEATS/MIN",NA,NA,"Y",3,"BASELINE",1,"2014-03-18",1,"AFTER STANDING FOR 1 MINUTE",816,"PT1M","PATIENT STANDING"
"CDISCPILOT01","VS","01-701-1033",31,"PULSE","Pulse Rate","STANDING","62","BEATS/MIN","62",62,"BEATS/MIN",NA,NA,"Y",3,"BASELINE",1,"2014-03-18",1,"AFTER STANDING FOR 3 MINUTES",817,"PT3M","PATIENT STANDING"
"CDISCPILOT01","VS","01-701-1033",32,"PULSE","Pulse Rate","SUPINE","62","BEATS/MIN","62",62,"BEATS/MIN",NA,NA,NA,3.5,"AMBUL ECG PLACEMENT",13,"2014-03-31",14,"AFTER LYING DOWN FOR 5 MINUTES",815,"PT5M","PATIENT SUPINE"
"CDISCPILOT01","VS","01-701-1033",33,"PULSE","Pulse Rate","STANDING","62","BEATS/MIN","62",62,"BEATS/MIN",NA,NA,NA,3.5,"AMBUL ECG PLACEMENT",13,"2014-03-31",14,"AFTER STANDING FOR 1 MINUTE",816,"PT1M","PATIENT STANDING"
"CDISCPILOT01","VS","01-701-1033",34,"PULSE","Pulse Rate","STANDING","60","BEATS/MIN","60",60,"BEATS/MIN",NA,NA,NA,3.5,"AMBUL ECG PLACEMENT",13,"2014-03-31",14,"AFTER STANDING FOR 3 MINUTES",817,"PT3M","PATIENT STANDING"
"CDISCPILOT01","VS","01-701-1033",35,"PULSE","Pulse Rate","SUPINE","59","BEATS/MIN","59",59,"BEATS/MIN",NA,NA,NA,4,"WEEK 2",14,"2014-04-01",15,"AFTER LYING DOWN FOR 5 MINUTES",815,"PT5M","PATIENT SUPINE"
"CDISCPILOT01","VS","01-701-1033",36,"PULSE","Pulse Rate","STANDING","62","BEATS/MIN","62",62,"BEATS/MIN",NA,NA,NA,4,"WEEK 2",14,"2014-04-01",15,"AFTER STANDING FOR 1 MINUTE",816,"PT1M","PATIENT STANDING"
"CDISCPILOT01","VS","01-701-1033",37,"PULSE","Pulse Rate","STANDING","62","BEATS/MIN","62",62,"BEATS/MIN",NA,NA,NA,4,"WEEK 2",14,"2014-04-01",15,"AFTER STANDING FOR 3 MINUTES",817,"PT3M","PATIENT STANDING"
"CDISCPILOT01","VS","01-701-1033",38,"PULSE","Pulse Rate","SUPINE","54","BEATS/MIN","54",54,"BEATS/MIN",NA,NA,NA,5,"WEEK 4",28,"2014-04-14",28,"AFTER LYING DOWN FOR 5 MINUTES",815,"PT5M","PATIENT SUPINE"
"CDISCPILOT01","VS","01-701-1033",39,"PULSE","Pulse Rate","STANDING","57","BEATS/MIN","57",57,"BEATS/MIN",NA,NA,NA,5,"WEEK 4",28,"2014-04-14",28,"AFTER STANDING FOR 1 MINUTE",816,"PT1M","PATIENT STANDING"
"CDISCPILOT01","VS","01-701-1033",40,"PULSE","Pulse Rate","STANDING","58","BEATS/MIN","58",58,"BEATS/MIN",NA,NA,NA,5,"WEEK 4",28,"2014-04-14",28,"AFTER STANDING FOR 3 MINUTES",817,"PT3M","PATIENT STANDING"
"CDISCPILOT01","VS","01-701-1033",41,"PULSE","Pulse Rate","SUPINE","50","BEATS/MIN","50",50,"BEATS/MIN",NA,NA,NA,201,"RETRIEVAL",168,"2014-09-15",182,"AFTER LYING DOWN FOR 5 MINUTES",815,"PT5M","PATIENT SUPINE"
"CDISCPILOT01","VS","01-701-1033",42,"PULSE","Pulse Rate","STANDING","55","BEATS/MIN","55",55,"BEATS/MIN",NA,NA,NA,201,"RETRIEVAL",168,"2014-09-15",182,"AFTER STANDING FOR 1 MINUTE",816,"PT1M","PATIENT STANDING"
"CDISCPILOT01","VS","01-701-1033",43,"PULSE","Pulse Rate","STANDING","50","BEATS/MIN","50",50,"BEATS/MIN",NA,NA,NA,201,"RETRIEVAL",168,"2014-09-15",182,"AFTER STANDING FOR 3 MINUTES",817,"PT3M","PATIENT STANDING"
"CDISCPILOT01","VS","01-701-1033",44,"SYSBP","Systolic Blood Pressure","SUPINE","128","mmHg","128",128,"mmHg",NA,NA,NA,1,"SCREENING 1",-7,"2014-03-10",-8,"AFTER LYING DOWN FOR 5 MINUTES",815,"PT5M","PATIENT SUPINE"
"CDISCPILOT01","VS","01-701-1033",45,"SYSBP","Systolic Blood Pressure","STANDING","117","mmHg","117",117,"mmHg",NA,NA,NA,1,"SCREENING 1",-7,"2014-03-10",-8,"AFTER STANDING FOR 1 MINUTE",816,"PT1M","PATIENT STANDING"
"CDISCPILOT01","VS","01-701-1033",46,"SYSBP","Systolic Blood Pressure","STANDING","121","mmHg","121",121,"mmHg",NA,NA,NA,1,"SCREENING 1",-7,"2014-03-10",-8,"AFTER STANDING FOR 3 MINUTES",817,"PT3M","PATIENT STANDING"
"CDISCPILOT01","VS","01-701-1033",47,"SYSBP","Systolic Blood Pressure","SUPINE","115","mmHg","115",115,"mmHg",NA,NA,NA,2,"SCREENING 2",-1,"2014-03-16",-2,"AFTER LYING DOWN FOR 5 MINUTES",815,"PT5M","PATIENT SUPINE"
"CDISCPILOT01","VS","01-701-1033",48,"SYSBP","Systolic Blood Pressure","STANDING","102","mmHg","102",102,"mmHg",NA,NA,NA,2,"SCREENING 2",-1,"2014-03-16",-2,"AFTER STANDING FOR 1 MINUTE",816,"PT1M","PATIENT STANDING"
"CDISCPILOT01","VS","01-701-1033",49,"SYSBP","Systolic Blood Pressure","STANDING","124","mmHg","124",124,"mmHg",NA,NA,NA,2,"SCREENING 2",-1,"2014-03-16",-2,"AFTER STANDING FOR 3 MINUTES",817,"PT3M","PATIENT STANDING"
"CDISCPILOT01","VS","01-701-1033",50,"SYSBP","Systolic Blood Pressure","SUPINE","136","mmHg","136",136,"mmHg",NA,NA,"Y",3,"BASELINE",1,"2014-03-18",1,"AFTER LYING DOWN FOR 5 MINUTES",815,"PT5M","PATIENT SUPINE"
"CDISCPILOT01","VS","01-701-1033",51,"SYSBP","Systolic Blood Pressure","STANDING","116","mmHg","116",116,"mmHg",NA,NA,"Y",3,"BASELINE",1,"2014-03-18",1,"AFTER STANDING FOR 1 MINUTE",816,"PT1M","PATIENT STANDING"
"CDISCPILOT01","VS","01-701-1033",52,"SYSBP","Systolic Blood Pressure","STANDING","121","mmHg","121",121,"mmHg",NA,NA,"Y",3,"BASELINE",1,"2014-03-18",1,"AFTER STANDING FOR 3 MINUTES",817,"PT3M","PATIENT STANDING"
"CDISCPILOT01","VS","01-701-1033",53,"SYSBP","Systolic Blood Pressure","SUPINE","151","mmHg","151",151,"mmHg",NA,NA,NA,3.5,"AMBUL ECG PLACEMENT",13,"2014-03-31",14,"AFTER LYING DOWN FOR 5 MINUTES",815,"PT5M","PATIENT SUPINE"
"CDISCPILOT01","VS","01-701-1033",54,"SYSBP","Systolic Blood Pressure","STANDING","139","mmHg","139",139,"mmHg",NA,NA,NA,3.5,"AMBUL ECG PLACEMENT",13,"2014-03-31",14,"AFTER STANDING FOR 1 MINUTE",816,"PT1M","PATIENT STANDING"
"CDISCPILOT01","VS","01-701-1033",55,"SYSBP","Systolic Blood Pressure","STANDING","139","mmHg","139",139,"mmHg",NA,NA,NA,3.5,"AMBUL ECG PLACEMENT",13,"2014-03-31",14,"AFTER STANDING FOR 3 MINUTES",817,"PT3M","PATIENT STANDING"
"CDISCPILOT01","VS","01-701-1033",56,"SYSBP","Systolic Blood Pressure","SUPINE","138","mmHg","138",138,"mmHg",NA,NA,NA,4,"WEEK 2",14,"2014-04-01",15,"AFTER LYING DOWN FOR 5 MINUTES",815,"PT5M","PATIENT SUPINE"
"CDISCPILOT01","VS","01-701-1033",57,"SYSBP","Systolic Blood Pressure","STANDING","118","mmHg","118",118,"mmHg",NA,NA,NA,4,"WEEK 2",14,"2014-04-01",15,"AFTER STANDING FOR 1 MINUTE",816,"PT1M","PATIENT STANDING"
"CDISCPILOT01","VS","01-701-1033",58,"SYSBP","Systolic Blood Pressure","STANDING","130","mmHg","130",130,"mmHg",NA,NA,NA,4,"WEEK 2",14,"2014-04-01",15,"AFTER STANDING FOR 3 MINUTES",817,"PT3M","PATIENT STANDING"
"CDISCPILOT01","VS","01-701-1033",59,"SYSBP","Systolic Blood Pressure","SUPINE","130","mmHg","130",130,"mmHg",NA,NA,NA,5,"WEEK 4",28,"2014-04-14",28,"AFTER LYING DOWN FOR 5 MINUTES",815,"PT5M","PATIENT SUPINE"
"CDISCPILOT01","VS","01-701-1033",60,"SYSBP","Systolic Blood Pressure","STANDING","122","mmHg","122",122,"mmHg",NA,NA,NA,5,"WEEK 4",28,"2014-04-14",28,"AFTER STANDING FOR 1 MINUTE",816,"PT1M","PATIENT STANDING"
"CDISCPILOT01","VS","01-701-1033",61,"SYSBP","Systolic Blood Pressure","STANDING","125","mmHg","125",125,"mmHg",NA,NA,NA,5,"WEEK 4",28,"2014-04-14",28,"AFTER STANDING FOR 3 MINUTES",817,"PT3M","PATIENT STANDING"
"CDISCPILOT01","VS","01-701-1033",62,"SYSBP","Systolic Blood Pressure","SUPINE","130","mmHg","130",130,"mmHg",NA,NA,NA,201,"RETRIEVAL",168,"2014-09-15",182,"AFTER LYING DOWN FOR 5 MINUTES",815,"PT5M","PATIENT SUPINE"
"CDISCPILOT01","VS","01-701-1033",63,"SYSBP","Systolic Blood Pressure","STANDING","122","mmHg","122",122,"mmHg",NA,NA,NA,201,"RETRIEVAL",168,"2014-09-15",182,"AFTER STANDING FOR 1 MINUTE",816,"PT1M","PATIENT STANDING"
"CDISCPILOT01","VS","01-701-1033",64,"SYSBP","Systolic Blood Pressure","STANDING","123","mmHg","123",123,"mmHg",NA,NA,NA,201,"RETRIEVAL",168,"2014-09-15",182,"AFTER STANDING FOR 3 MINUTES",817,"PT3M","PATIENT STANDING"
"CDISCPILOT01","VS","01-701-1033",65,"TEMP","Temperature",NA,"98.7","F","37.06",37.06,"C",NA,"ORAL CAVITY",NA,1,"SCREENING 1",-7,"2014-03-10",-8,NA,NA,NA,NA
"CDISCPILOT01","VS","01-701-1033",66,"TEMP","Temperature",NA,"98.9","F","37.17",37.17,"C",NA,"ORAL CAVITY",NA,2,"SCREENING 2",-1,"2014-03-16",-2,NA,NA,NA,NA
"CDISCPILOT01","VS","01-701-1033",67,"TEMP","Temperature",NA,"98.8","F","37.11",37.11,"C",NA,"ORAL CAVITY","Y",3,"BASELINE",1,"2014-03-18",1,NA,NA,NA,NA
"CDISCPILOT01","VS","01-701-1033",68,"TEMP","Temperature",NA,"98.0","F","36.67",36.67,"C",NA,"ORAL CAVITY",NA,3.5,"AMBUL ECG PLACEMENT",13,"2014-03-31",14,NA,NA,NA,NA
"CDISCPILOT01","VS","01-701-1033",69,"TEMP","Temperature",NA,"98.1","F","36.72",36.72,"C",NA,"ORAL CAVITY",NA,4,"WEEK 2",14,"2014-04-01",15,NA,NA,NA,NA
"CDISCPILOT01","VS","01-701-1033",70,"TEMP","Temperature",NA,"98.1","F","36.72",36.72,"C",NA,"ORAL CAVITY",NA,5,"WEEK 4",28,"2014-04-14",28,NA,NA,NA,NA
"CDISCPILOT01","VS","01-701-1033",71,"TEMP","Temperature",NA,"98.1","F","36.72",36.72,"C",NA,"ORAL CAVITY",NA,201,"RETRIEVAL",168,"2014-09-15",182,NA,NA,NA,NA
"CDISCPILOT01","VS","01-701-1033",72,"WEIGHT","Weight",NA,"195.0","LB","88.45",88.45,"kg",NA,NA,NA,1,"SCREENING 1",-7,"2014-03-10",-8,NA,NA,NA,NA
"CDISCPILOT01","VS","01-701-1033",73,"WEIGHT","Weight",NA,"195.0","LB","88.45",88.45,"kg",NA,NA,"Y",3,"BASELINE",1,"2014-03-18",1,NA,NA,NA,NA
"CDISCPILOT01","VS","01-701-1033",74,"WEIGHT","Weight",NA,"197.0","LB","89.36",89.36,"kg",NA,NA,NA,4,"WEEK 2",14,"2014-04-01",15,NA,NA,NA,NA
"CDISCPILOT01","VS","01-701-1033",75,"WEIGHT","Weight",NA,"195.0","LB","88.45",88.45,"kg",NA,NA,NA,5,"WEEK 4",28,"2014-04-14",28,NA,NA,NA,NA
"CDISCPILOT01","VS","01-701-1034",1,"DIABP","Diastolic Blood Pressure","SUPINE","58","mmHg","58",58,"mmHg",NA,NA,NA,1,"SCREENING 1",-7,"2014-06-24",-7,"AFTER LYING DOWN FOR 5 MINUTES",815,"PT5M","PATIENT SUPINE"
"CDISCPILOT01","VS","01-701-1034",2,"DIABP","Diastolic Blood Pressure","STANDING","73","mmHg","73",73,"mmHg",NA,NA,NA,1,"SCREENING 1",-7,"2014-06-24",-7,"AFTER STANDING FOR 1 MINUTE",816,"PT1M","PATIENT STANDING"
"CDISCPILOT01","VS","01-701-1034",3,"DIABP","Diastolic Blood Pressure","STANDING","79","mmHg","79",79,"mmHg",NA,NA,NA,1,"SCREENING 1",-7,"2014-06-24",-7,"AFTER STANDING FOR 3 MINUTES",817,"PT3M","PATIENT STANDING"
"CDISCPILOT01","VS","01-701-1034",4,"DIABP","Diastolic Blood Pressure","SUPINE","62","mmHg","62",62,"mmHg",NA,NA,NA,2,"SCREENING 2",-1,"2014-06-29",-2,"AFTER LYING DOWN FOR 5 MINUTES",815,"PT5M","PATIENT SUPINE"
"CDISCPILOT01","VS","01-701-1034",5,"DIABP","Diastolic Blood Pressure","STANDING","81","mmHg","81",81,"mmHg",NA,NA,NA,2,"SCREENING 2",-1,"2014-06-29",-2,"AFTER STANDING FOR 1 MINUTE",816,"PT1M","PATIENT STANDING"
"CDISCPILOT01","VS","01-701-1034",6,"DIABP","Diastolic Blood Pressure","STANDING","69","mmHg","69",69,"mmHg",NA,NA,NA,2,"SCREENING 2",-1,"2014-06-29",-2,"AFTER STANDING FOR 3 MINUTES",817,"PT3M","PATIENT STANDING"
"CDISCPILOT01","VS","01-701-1034",7,"DIABP","Diastolic Blood Pressure","SUPINE","60","mmHg","60",60,"mmHg",NA,NA,"Y",3,"BASELINE",1,"2014-07-01",1,"AFTER LYING DOWN FOR 5 MINUTES",815,"PT5M","PATIENT SUPINE"
"CDISCPILOT01","VS","01-701-1034",8,"DIABP","Diastolic Blood Pressure","STANDING","75","mmHg","75",75,"mmHg",NA,NA,"Y",3,"BASELINE",1,"2014-07-01",1,"AFTER STANDING FOR 1 MINUTE",816,"PT1M","PATIENT STANDING"
"CDISCPILOT01","VS","01-701-1034",9,"DIABP","Diastolic Blood Pressure","STANDING","82","mmHg","82",82,"mmHg",NA,NA,"Y",3,"BASELINE",1,"2014-07-01",1,"AFTER STANDING FOR 3 MINUTES",817,"PT3M","PATIENT STANDING"
"CDISCPILOT01","VS","01-701-1034",10,"DIABP","Diastolic Blood Pressure","SUPINE","81","mmHg","81",81,"mmHg",NA,NA,NA,4,"WEEK 2",14,"2014-07-15",15,"AFTER LYING DOWN FOR 5 MINUTES",815,"PT5M","PATIENT SUPINE"
"CDISCPILOT01","VS","01-701-1034",11,"DIABP","Diastolic Blood Pressure","STANDING","101","mmHg","101",101,"mmHg",NA,NA,NA,4,"WEEK 2",14,"2014-07-15",15,"AFTER STANDING FOR 1 MINUTE",816,"PT1M","PATIENT STANDING"
"CDISCPILOT01","VS","01-701-1034",12,"DIABP","Diastolic Blood Pressure","STANDING","84","mmHg","84",84,"mmHg",NA,NA,NA,4,"WEEK 2",14,"2014-07-15",15,"AFTER STANDING FOR 3 MINUTES",817,"PT3M","PATIENT STANDING"
"CDISCPILOT01","VS","01-701-1034",13,"DIABP","Diastolic Blood Pressure","SUPINE","71","mmHg","71",71,"mmHg",NA,NA,NA,5,"WEEK 4",28,"2014-07-29",29,"AFTER LYING DOWN FOR 5 MINUTES",815,"PT5M","PATIENT SUPINE"
"CDISCPILOT01","VS","01-701-1034",14,"DIABP","Diastolic Blood Pressure","STANDING","69","mmHg","69",69,"mmHg",NA,NA,NA,5,"WEEK 4",28,"2014-07-29",29,"AFTER STANDING FOR 1 MINUTE",816,"PT1M","PATIENT STANDING"
"CDISCPILOT01","VS","01-701-1034",15,"DIABP","Diastolic Blood Pressure","STANDING","71","mmHg","71",71,"mmHg",NA,NA,NA,5,"WEEK 4",28,"2014-07-29",29,"AFTER STANDING FOR 3 MINUTES",817,"PT3M","PATIENT STANDING"
"CDISCPILOT01","VS","01-701-1034",16,"DIABP","Diastolic Blood Pressure","SUPINE","54","mmHg","54",54,"mmHg",NA,NA,NA,6,"AMBUL ECG REMOVAL",30,"2014-07-31",31,"AFTER LYING DOWN FOR 5 MINUTES",815,"PT5M","PATIENT SUPINE"
"CDISCPILOT01","VS","01-701-1034",17,"DIABP","Diastolic Blood Pressure","STANDING","65","mmHg","65",65,"mmHg",NA,NA,NA,6,"AMBUL ECG REMOVAL",30,"2014-07-31",31,"AFTER STANDING FOR 1 MINUTE",816,"PT1M","PATIENT STANDING"
"CDISCPILOT01","VS","01-701-1034",18,"DIABP","Diastolic Blood Pressure","STANDING","61","mmHg","61",61,"mmHg",NA,NA,NA,6,"AMBUL ECG REMOVAL",30,"2014-07-31",31,"AFTER STANDING FOR 3 MINUTES",817,"PT3M","PATIENT STANDING"
"CDISCPILOT01","VS","01-701-1034",19,"DIABP","Diastolic Blood Pressure","SUPINE","57","mmHg","57",57,"mmHg",NA,NA,NA,7,"WEEK 6",42,"2014-08-11",42,"AFTER LYING DOWN FOR 5 MINUTES",815,"PT5M","PATIENT SUPINE"
"CDISCPILOT01","VS","01-701-1034",20,"DIABP","Diastolic Blood Pressure","STANDING","76","mmHg","76",76,"mmHg",NA,NA,NA,7,"WEEK 6",42,"2014-08-11",42,"AFTER STANDING FOR 1 MINUTE",816,"PT1M","PATIENT STANDING"
"CDISCPILOT01","VS","01-701-1034",21,"DIABP","Diastolic Blood Pressure","STANDING","80","mmHg","80",80,"mmHg",NA,NA,NA,7,"WEEK 6",42,"2014-08-11",42,"AFTER STANDING FOR 3 MINUTES",817,"PT3M","PATIENT STANDING"
"CDISCPILOT01","VS","01-701-1034",22,"DIABP","Diastolic Blood Pressure","SUPINE","73","mmHg","73",73,"mmHg",NA,NA,NA,8,"WEEK 8",56,"2014-08-26",57,"AFTER LYING DOWN FOR 5 MINUTES",815,"PT5M","PATIENT SUPINE"
"CDISCPILOT01","VS","01-701-1034",23,"DIABP","Diastolic Blood Pressure","STANDING","80","mmHg","80",80,"mmHg",NA,NA,NA,8,"WEEK 8",56,"2014-08-26",57,"AFTER STANDING FOR 1 MINUTE",816,"PT1M","PATIENT STANDING"
"CDISCPILOT01","VS","01-701-1034",24,"DIABP","Diastolic Blood Pressure","STANDING","76","mmHg","76",76,"mmHg",NA,NA,NA,8,"WEEK 8",56,"2014-08-26",57,"AFTER STANDING FOR 3 MINUTES",817,"PT3M","PATIENT STANDING"
"CDISCPILOT01","VS","01-701-1034",25,"DIABP","Diastolic Blood Pressure","SUPINE","71","mmHg","71",71,"mmHg",NA,NA,NA,9,"WEEK 12",84,"2014-09-25",87,"AFTER LYING DOWN FOR 5 MINUTES",815,"PT5M","PATIENT SUPINE"
"CDISCPILOT01","VS","01-701-1034",26,"DIABP","Diastolic Blood Pressure","STANDING","66","mmHg","66",66,"mmHg",NA,NA,NA,9,"WEEK 12",84,"2014-09-25",87,"AFTER STANDING FOR 1 MINUTE",816,"PT1M","PATIENT STANDING"
"CDISCPILOT01","VS","01-701-1034",27,"DIABP","Diastolic Blood Pressure","STANDING","63","mmHg","63",63,"mmHg",NA,NA,NA,9,"WEEK 12",84,"2014-09-25",87,"AFTER STANDING FOR 3 MINUTES",817,"PT3M","PATIENT STANDING"
"CDISCPILOT01","VS","01-701-1034",28,"DIABP","Diastolic Blood Pressure","SUPINE","87","mmHg","87",87,"mmHg",NA,NA,NA,10,"WEEK 16",112,"2014-10-21",113,"AFTER LYING DOWN FOR 5 MINUTES",815,"PT5M","PATIENT SUPINE"
"CDISCPILOT01","VS","01-701-1034",29,"DIABP","Diastolic Blood Pressure","STANDING","77","mmHg","77",77,"mmHg",NA,NA,NA,10,"WEEK 16",112,"2014-10-21",113,"AFTER STANDING FOR 1 MINUTE",816,"PT1M","PATIENT STANDING"
"CDISCPILOT01","VS","01-701-1034",30,"DIABP","Diastolic Blood Pressure","STANDING","72","mmHg","72",72,"mmHg",NA,NA,NA,10,"WEEK 16",112,"2014-10-21",113,"AFTER STANDING FOR 3 MINUTES",817,"PT3M","PATIENT STANDING"
"CDISCPILOT01","VS","01-701-1034",31,"DIABP","Diastolic Blood Pressure","SUPINE","78","mmHg","78",78,"mmHg",NA,NA,NA,11,"WEEK 20",140,"2014-11-18",141,"AFTER LYING DOWN FOR 5 MINUTES",815,"PT5M","PATIENT SUPINE"
"CDISCPILOT01","VS","01-701-1034",32,"DIABP","Diastolic Blood Pressure","STANDING","77","mmHg","77",77,"mmHg",NA,NA,NA,11,"WEEK 20",140,"2014-11-18",141,"AFTER STANDING FOR 1 MINUTE",816,"PT1M","PATIENT STANDING"
"CDISCPILOT01","VS","01-701-1034",33,"DIABP","Diastolic Blood Pressure","STANDING","72","mmHg","72",72,"mmHg",NA,NA,NA,11,"WEEK 20",140,"2014-11-18",141,"AFTER STANDING FOR 3 MINUTES",817,"PT3M","PATIENT STANDING"
"CDISCPILOT01","VS","01-701-1034",34,"DIABP","Diastolic Blood Pressure","SUPINE","81","mmHg","81",81,"mmHg",NA,NA,NA,12,"WEEK 24",168,"2014-12-17",170,"AFTER LYING DOWN FOR 5 MINUTES",815,"PT5M","PATIENT SUPINE"
"CDISCPILOT01","VS","01-701-1034",35,"DIABP","Diastolic Blood Pressure","STANDING","97","mmHg","97",97,"mmHg",NA,NA,NA,12,"WEEK 24",168,"2014-12-17",170,"AFTER STANDING FOR 1 MINUTE",816,"PT1M","PATIENT STANDING"
"CDISCPILOT01","VS","01-701-1034",36,"DIABP","Diastolic Blood Pressure","STANDING","98","mmHg","98",98,"mmHg",NA,NA,NA,12,"WEEK 24",168,"2014-12-17",170,"AFTER STANDING FOR 3 MINUTES",817,"PT3M","PATIENT STANDING"
"CDISCPILOT01","VS","01-701-1034",37,"DIABP","Diastolic Blood Pressure","SUPINE","67","mmHg","67",67,"mmHg",NA,NA,NA,13,"WEEK 26",182,"2014-12-30",183,"AFTER LYING DOWN FOR 5 MINUTES",815,"PT5M","PATIENT SUPINE"
"CDISCPILOT01","VS","01-701-1034",38,"DIABP","Diastolic Blood Pressure","STANDING","93","mmHg","93",93,"mmHg",NA,NA,NA,13,"WEEK 26",182,"2014-12-30",183,"AFTER STANDING FOR 1 MINUTE",816,"PT1M","PATIENT STANDING"
"CDISCPILOT01","VS","01-701-1034",39,"DIABP","Diastolic Blood Pressure","STANDING","66","mmHg","66",66,"mmHg",NA,NA,NA,13,"WEEK 26",182,"2014-12-30",183,"AFTER STANDING FOR 3 MINUTES",817,"PT3M","PATIENT STANDING"
"CDISCPILOT01","VS","01-701-1034",40,"HEIGHT","Height",NA,"61.0","IN","154.94",154.94,"cm",NA,NA,NA,1,"SCREENING 1",-7,"2014-06-24",-7,NA,NA,NA,NA
"CDISCPILOT01","VS","01-701-1034",41,"PULSE","Pulse Rate","SUPINE","69","BEATS/MIN","69",69,"BEATS/MIN",NA,NA,NA,1,"SCREENING 1",-7,"2014-06-24",-7,"AFTER LYING DOWN FOR 5 MINUTES",815,"PT5M","PATIENT SUPINE"
"CDISCPILOT01","VS","01-701-1034",42,"PULSE","Pulse Rate","STANDING","76","BEATS/MIN","76",76,"BEATS/MIN",NA,NA,NA,1,"SCREENING 1",-7,"2014-06-24",-7,"AFTER STANDING FOR 1 MINUTE",816,"PT1M","PATIENT STANDING"
"CDISCPILOT01","VS","01-701-1034",43,"PULSE","Pulse Rate","STANDING","74","BEATS/MIN","74",74,"BEATS/MIN",NA,NA,NA,1,"SCREENING 1",-7,"2014-06-24",-7,"AFTER STANDING FOR 3 MINUTES",817,"PT3M","PATIENT STANDING"
"CDISCPILOT01","VS","01-701-1034",44,"PULSE","Pulse Rate","SUPINE","75","BEATS/MIN","75",75,"BEATS/MIN",NA,NA,NA,2,"SCREENING 2",-1,"2014-06-29",-2,"AFTER LYING DOWN FOR 5 MINUTES",815,"PT5M","PATIENT SUPINE"
"CDISCPILOT01","VS","01-701-1034",45,"PULSE","Pulse Rate","STANDING","79","BEATS/MIN","79",79,"BEATS/MIN",NA,NA,NA,2,"SCREENING 2",-1,"2014-06-29",-2,"AFTER STANDING FOR 1 MINUTE",816,"PT1M","PATIENT STANDING"
"CDISCPILOT01","VS","01-701-1034",46,"PULSE","Pulse Rate","STANDING","79","BEATS/MIN","79",79,"BEATS/MIN",NA,NA,NA,2,"SCREENING 2",-1,"2014-06-29",-2,"AFTER STANDING FOR 3 MINUTES",817,"PT3M","PATIENT STANDING"
"CDISCPILOT01","VS","01-701-1034",47,"PULSE","Pulse Rate","SUPINE","76","BEATS/MIN","76",76,"BEATS/MIN",NA,NA,"Y",3,"BASELINE",1,"2014-07-01",1,"AFTER LYING DOWN FOR 5 MINUTES",815,"PT5M","PATIENT SUPINE"
"CDISCPILOT01","VS","01-701-1034",48,"PULSE","Pulse Rate","STANDING","83","BEATS/MIN","83",83,"BEATS/MIN",NA,NA,"Y",3,"BASELINE",1,"2014-07-01",1,"AFTER STANDING FOR 1 MINUTE",816,"PT1M","PATIENT STANDING"
"CDISCPILOT01","VS","01-701-1034",49,"PULSE","Pulse Rate","STANDING","80","BEATS/MIN","80",80,"BEATS/MIN",NA,NA,"Y",3,"BASELINE",1,"2014-07-01",1,"AFTER STANDING FOR 3 MINUTES",817,"PT3M","PATIENT STANDING"
"CDISCPILOT01","VS","01-701-1034",50,"PULSE","Pulse Rate","SUPINE","86","BEATS/MIN","86",86,"BEATS/MIN",NA,NA,NA,4,"WEEK 2",14,"2014-07-15",15,"AFTER LYING DOWN FOR 5 MINUTES",815,"PT5M","PATIENT SUPINE"
"CDISCPILOT01","VS","01-701-1034",51,"PULSE","Pulse Rate","STANDING","91","BEATS/MIN","91",91,"BEATS/MIN",NA,NA,NA,4,"WEEK 2",14,"2014-07-15",15,"AFTER STANDING FOR 1 MINUTE",816,"PT1M","PATIENT STANDING"
"CDISCPILOT01","VS","01-701-1034",52,"PULSE","Pulse Rate","STANDING","86","BEATS/MIN","86",86,"BEATS/MIN",NA,NA,NA,4,"WEEK 2",14,"2014-07-15",15,"AFTER STANDING FOR 3 MINUTES",817,"PT3M","PATIENT STANDING"
"CDISCPILOT01","VS","01-701-1034",53,"PULSE","Pulse Rate","SUPINE","87","BEATS/MIN","87",87,"BEATS/MIN",NA,NA,NA,5,"WEEK 4",28,"2014-07-29",29,"AFTER LYING DOWN FOR 5 MINUTES",815,"PT5M","PATIENT SUPINE"
"CDISCPILOT01","VS","01-701-1034",54,"PULSE","Pulse Rate","STANDING","91","BEATS/MIN","91",91,"BEATS/MIN",NA,NA,NA,5,"WEEK 4",28,"2014-07-29",29,"AFTER STANDING FOR 1 MINUTE",816,"PT1M","PATIENT STANDING"
"CDISCPILOT01","VS","01-701-1034",55,"PULSE","Pulse Rate","STANDING","88","BEATS/MIN","88",88,"BEATS/MIN",NA,NA,NA,5,"WEEK 4",28,"2014-07-29",29,"AFTER STANDING FOR 3 MINUTES",817,"PT3M","PATIENT STANDING"
"CDISCPILOT01","VS","01-701-1034",56,"PULSE","Pulse Rate","SUPINE","83","BEATS/MIN","83",83,"BEATS/MIN",NA,NA,NA,6,"AMBUL ECG REMOVAL",30,"2014-07-31",31,"AFTER LYING DOWN FOR 5 MINUTES",815,"PT5M","PATIENT SUPINE"
"CDISCPILOT01","VS","01-701-1034",57,"PULSE","Pulse Rate","STANDING","90","BEATS/MIN","90",90,"BEATS/MIN",NA,NA,NA,6,"AMBUL ECG REMOVAL",30,"2014-07-31",31,"AFTER STANDING FOR 1 MINUTE",816,"PT1M","PATIENT STANDING"
"CDISCPILOT01","VS","01-701-1034",58,"PULSE","Pulse Rate","STANDING","86","BEATS/MIN","86",86,"BEATS/MIN",NA,NA,NA,6,"AMBUL ECG REMOVAL",30,"2014-07-31",31,"AFTER STANDING FOR 3 MINUTES",817,"PT3M","PATIENT STANDING"
"CDISCPILOT01","VS","01-701-1034",59,"PULSE","Pulse Rate","SUPINE","97","BEATS/MIN","97",97,"BEATS/MIN",NA,NA,NA,7,"WEEK 6",42,"2014-08-11",42,"AFTER LYING DOWN FOR 5 MINUTES",815,"PT5M","PATIENT SUPINE"
"CDISCPILOT01","VS","01-701-1034",60,"PULSE","Pulse Rate","STANDING","93","BEATS/MIN","93",93,"BEATS/MIN",NA,NA,NA,7,"WEEK 6",42,"2014-08-11",42,"AFTER STANDING FOR 1 MINUTE",816,"PT1M","PATIENT STANDING"
"CDISCPILOT01","VS","01-701-1034",61,"PULSE","Pulse Rate","STANDING","94","BEATS/MIN","94",94,"BEATS/MIN",NA,NA,NA,7,"WEEK 6",42,"2014-08-11",42,"AFTER STANDING FOR 3 MINUTES",817,"PT3M","PATIENT STANDING"
"CDISCPILOT01","VS","01-701-1034",62,"PULSE","Pulse Rate","SUPINE","78","BEATS/MIN","78",78,"BEATS/MIN",NA,NA,NA,8,"WEEK 8",56,"2014-08-26",57,"AFTER LYING DOWN FOR 5 MINUTES",815,"PT5M","PATIENT SUPINE"
"CDISCPILOT01","VS","01-701-1034",63,"PULSE","Pulse Rate","STANDING","71","BEATS/MIN","71",71,"BEATS/MIN",NA,NA,NA,8,"WEEK 8",56,"2014-08-26",57,"AFTER STANDING FOR 1 MINUTE",816,"PT1M","PATIENT STANDING"
"CDISCPILOT01","VS","01-701-1034",64,"PULSE","Pulse Rate","STANDING","71","BEATS/MIN","71",71,"BEATS/MIN",NA,NA,NA,8,"WEEK 8",56,"2014-08-26",57,"AFTER STANDING FOR 3 MINUTES",817,"PT3M","PATIENT STANDING"
"CDISCPILOT01","VS","01-701-1034",65,"PULSE","Pulse Rate","SUPINE","66","BEATS/MIN","66",66,"BEATS/MIN",NA,NA,NA,9,"WEEK 12",84,"2014-09-25",87,"AFTER LYING DOWN FOR 5 MINUTES",815,"PT5M","PATIENT SUPINE"
"CDISCPILOT01","VS","01-701-1034",66,"PULSE","Pulse Rate","STANDING","70","BEATS/MIN","70",70,"BEATS/MIN",NA,NA,NA,9,"WEEK 12",84,"2014-09-25",87,"AFTER STANDING FOR 1 MINUTE",816,"PT1M","PATIENT STANDING"
"CDISCPILOT01","VS","01-701-1034",67,"PULSE","Pulse Rate","STANDING","69","BEATS/MIN","69",69,"BEATS/MIN",NA,NA,NA,9,"WEEK 12",84,"2014-09-25",87,"AFTER STANDING FOR 3 MINUTES",817,"PT3M","PATIENT STANDING"
"CDISCPILOT01","VS","01-701-1034",68,"PULSE","Pulse Rate","SUPINE","74","BEATS/MIN","74",74,"BEATS/MIN",NA,NA,NA,10,"WEEK 16",112,"2014-10-21",113,"AFTER LYING DOWN FOR 5 MINUTES",815,"PT5M","PATIENT SUPINE"
"CDISCPILOT01","VS","01-701-1034",69,"PULSE","Pulse Rate","STANDING","79","BEATS/MIN","79",79,"BEATS/MIN",NA,NA,NA,10,"WEEK 16",112,"2014-10-21",113,"AFTER STANDING FOR 1 MINUTE",816,"PT1M","PATIENT STANDING"
"CDISCPILOT01","VS","01-701-1034",70,"PULSE","Pulse Rate","STANDING","78","BEATS/MIN","78",78,"BEATS/MIN",NA,NA,NA,10,"WEEK 16",112,"2014-10-21",113,"AFTER STANDING FOR 3 MINUTES",817,"PT3M","PATIENT STANDING"
"CDISCPILOT01","VS","01-701-1034",71,"PULSE","Pulse Rate","SUPINE","86","BEATS/MIN","86",86,"BEATS/MIN",NA,NA,NA,11,"WEEK 20",140,"2014-11-18",141,"AFTER LYING DOWN FOR 5 MINUTES",815,"PT5M","PATIENT SUPINE"
"CDISCPILOT01","VS","01-701-1034",72,"PULSE","Pulse Rate","STANDING","84","BEATS/MIN","84",84,"BEATS/MIN",NA,NA,NA,11,"WEEK 20",140,"2014-11-18",141,"AFTER STANDING FOR 1 MINUTE",816,"PT1M","PATIENT STANDING"
"CDISCPILOT01","VS","01-701-1034",73,"PULSE","Pulse Rate","STANDING","80","BEATS/MIN","80",80,"BEATS/MIN",NA,NA,NA,11,"WEEK 20",140,"2014-11-18",141,"AFTER STANDING FOR 3 MINUTES",817,"PT3M","PATIENT STANDING"
"CDISCPILOT01","VS","01-701-1034",74,"PULSE","Pulse Rate","SUPINE","96","BEATS/MIN","96",96,"BEATS/MIN",NA,NA,NA,12,"WEEK 24",168,"2014-12-17",170,"AFTER LYING DOWN FOR 5 MINUTES",815,"PT5M","PATIENT SUPINE"
"CDISCPILOT01","VS","01-701-1034",75,"PULSE","Pulse Rate","STANDING","97","BEATS/MIN","97",97,"BEATS/MIN",NA,NA,NA,12,"WEEK 24",168,"2014-12-17",170,"AFTER STANDING FOR 1 MINUTE",816,"PT1M","PATIENT STANDING"
"CDISCPILOT01","VS","01-701-1034",76,"PULSE","Pulse Rate","STANDING","91","BEATS/MIN","91",91,"BEATS/MIN",NA,NA,NA,12,"WEEK 24",168,"2014-12-17",170,"AFTER STANDING FOR 3 MINUTES",817,"PT3M","PATIENT STANDING"
"CDISCPILOT01","VS","01-701-1034",77,"PULSE","Pulse Rate","SUPINE","74","BEATS/MIN","74",74,"BEATS/MIN",NA,NA,NA,13,"WEEK 26",182,"2014-12-30",183,"AFTER LYING DOWN FOR 5 MINUTES",815,"PT5M","PATIENT SUPINE"
"CDISCPILOT01","VS","01-701-1034",78,"PULSE","Pulse Rate","STANDING","86","BEATS/MIN","86",86,"BEATS/MIN",NA,NA,NA,13,"WEEK 26",182,"2014-12-30",183,"AFTER STANDING FOR 1 MINUTE",816,"PT1M","PATIENT STANDING"
"CDISCPILOT01","VS","01-701-1034",79,"PULSE","Pulse Rate","STANDING","76","BEATS/MIN","76",76,"BEATS/MIN",NA,NA,NA,13,"WEEK 26",182,"2014-12-30",183,"AFTER STANDING FOR 3 MINUTES",817,"PT3M","PATIENT STANDING"
"CDISCPILOT01","VS","01-701-1034",80,"SYSBP","Systolic Blood Pressure","SUPINE","160","mmHg","160",160,"mmHg",NA,NA,NA,1,"SCREENING 1",-7,"2014-06-24",-7,"AFTER LYING DOWN FOR 5 MINUTES",815,"PT5M","PATIENT SUPINE"
"CDISCPILOT01","VS","01-701-1034",81,"SYSBP","Systolic Blood Pressure","STANDING","183","mmHg","183",183,"mmHg",NA,NA,NA,1,"SCREENING 1",-7,"2014-06-24",-7,"AFTER STANDING FOR 1 MINUTE",816,"PT1M","PATIENT STANDING"
"CDISCPILOT01","VS","01-701-1034",82,"SYSBP","Systolic Blood Pressure","STANDING","151","mmHg","151",151,"mmHg",NA,NA,NA,1,"SCREENING 1",-7,"2014-06-24",-7,"AFTER STANDING FOR 3 MINUTES",817,"PT3M","PATIENT STANDING"
"CDISCPILOT01","VS","01-701-1034",83,"SYSBP","Systolic Blood Pressure","SUPINE","158","mmHg","158",158,"mmHg",NA,NA,NA,2,"SCREENING 2",-1,"2014-06-29",-2,"AFTER LYING DOWN FOR 5 MINUTES",815,"PT5M","PATIENT SUPINE"
"CDISCPILOT01","VS","01-701-1034",84,"SYSBP","Systolic Blood Pressure","STANDING","155","mmHg","155",155,"mmHg",NA,NA,NA,2,"SCREENING 2",-1,"2014-06-29",-2,"AFTER STANDING FOR 1 MINUTE",816,"PT1M","PATIENT STANDING"
"CDISCPILOT01","VS","01-701-1034",85,"SYSBP","Systolic Blood Pressure","STANDING","155","mmHg","155",155,"mmHg",NA,NA,NA,2,"SCREENING 2",-1,"2014-06-29",-2,"AFTER STANDING FOR 3 MINUTES",817,"PT3M","PATIENT STANDING"
"CDISCPILOT01","VS","01-701-1034",86,"SYSBP","Systolic Blood Pressure","SUPINE","163","mmHg","163",163,"mmHg",NA,NA,"Y",3,"BASELINE",1,"2014-07-01",1,"AFTER LYING DOWN FOR 5 MINUTES",815,"PT5M","PATIENT SUPINE"
"CDISCPILOT01","VS","01-701-1034",87,"SYSBP","Systolic Blood Pressure","STANDING","177","mmHg","177",177,"mmHg",NA,NA,"Y",3,"BASELINE",1,"2014-07-01",1,"AFTER STANDING FOR 1 MINUTE",816,"PT1M","PATIENT STANDING"
"CDISCPILOT01","VS","01-701-1034",88,"SYSBP","Systolic Blood Pressure","STANDING","168","mmHg","168",168,"mmHg",NA,NA,"Y",3,"BASELINE",1,"2014-07-01",1,"AFTER STANDING FOR 3 MINUTES",817,"PT3M","PATIENT STANDING"
"CDISCPILOT01","VS","01-701-1034",89,"SYSBP","Systolic Blood Pressure","SUPINE","183","mmHg","183",183,"mmHg",NA,NA,NA,4,"WEEK 2",14,"2014-07-15",15,"AFTER LYING DOWN FOR 5 MINUTES",815,"PT5M","PATIENT SUPINE"
"CDISCPILOT01","VS","01-701-1034",90,"SYSBP","Systolic Blood Pressure","STANDING","191","mmHg","191",191,"mmHg",NA,NA,NA,4,"WEEK 2",14,"2014-07-15",15,"AFTER STANDING FOR 1 MINUTE",816,"PT1M","PATIENT STANDING"
"CDISCPILOT01","VS","01-701-1034",91,"SYSBP","Systolic Blood Pressure","STANDING","161","mmHg","161",161,"mmHg",NA,NA,NA,4,"WEEK 2",14,"2014-07-15",15,"AFTER STANDING FOR 3 MINUTES",817,"PT3M","PATIENT STANDING"
"CDISCPILOT01","VS","01-701-1034",92,"SYSBP","Systolic Blood Pressure","SUPINE","165","mmHg","165",165,"mmHg",NA,NA,NA,5,"WEEK 4",28,"2014-07-29",29,"AFTER LYING DOWN FOR 5 MINUTES",815,"PT5M","PATIENT SUPINE"
"CDISCPILOT01","VS","01-701-1034",93,"SYSBP","Systolic Blood Pressure","STANDING","170","mmHg","170",170,"mmHg",NA,NA,NA,5,"WEEK 4",28,"2014-07-29",29,"AFTER STANDING FOR 1 MINUTE",816,"PT1M","PATIENT STANDING"
"CDISCPILOT01","VS","01-701-1034",94,"SYSBP","Systolic Blood Pressure","STANDING","169","mmHg","169",169,"mmHg",NA,NA,NA,5,"WEEK 4",28,"2014-07-29",29,"AFTER STANDING FOR 3 MINUTES",817,"PT3M","PATIENT STANDING"
"CDISCPILOT01","VS","01-701-1034",95,"SYSBP","Systolic Blood Pressure","SUPINE","140","mmHg","140",140,"mmHg",NA,NA,NA,6,"AMBUL ECG REMOVAL",30,"2014-07-31",31,"AFTER LYING DOWN FOR 5 MINUTES",815,"PT5M","PATIENT SUPINE"
"CDISCPILOT01","VS","01-701-1034",96,"SYSBP","Systolic Blood Pressure","STANDING","166","mmHg","166",166,"mmHg",NA,NA,NA,6,"AMBUL ECG REMOVAL",30,"2014-07-31",31,"AFTER STANDING FOR 1 MINUTE",816,"PT1M","PATIENT STANDING"
"CDISCPILOT01","VS","01-701-1034",97,"SYSBP","Systolic Blood Pressure","STANDING","159","mmHg","159",159,"mmHg",NA,NA,NA,6,"AMBUL ECG REMOVAL",30,"2014-07-31",31,"AFTER STANDING FOR 3 MINUTES",817,"PT3M","PATIENT STANDING"
"CDISCPILOT01","VS","01-701-1034",98,"SYSBP","Systolic Blood Pressure","SUPINE","145","mmHg","145",145,"mmHg",NA,NA,NA,7,"WEEK 6",42,"2014-08-11",42,"AFTER LYING DOWN FOR 5 MINUTES",815,"PT5M","PATIENT SUPINE"
"CDISCPILOT01","VS","01-701-1034",99,"SYSBP","Systolic Blood Pressure","STANDING","174","mmHg","174",174,"mmHg",NA,NA,NA,7,"WEEK 6",42,"2014-08-11",42,"AFTER STANDING FOR 1 MINUTE",816,"PT1M","PATIENT STANDING"
"CDISCPILOT01","VS","01-701-1034",100,"SYSBP","Systolic Blood Pressure","STANDING","170","mmHg","170",170,"mmHg",NA,NA,NA,7,"WEEK 6",42,"2014-08-11",42,"AFTER STANDING FOR 3 MINUTES",817,"PT3M","PATIENT STANDING"
"CDISCPILOT01","VS","01-701-1034",101,"SYSBP","Systolic Blood Pressure","SUPINE","188","mmHg","188",188,"mmHg",NA,NA,NA,8,"WEEK 8",56,"2014-08-26",57,"AFTER LYING DOWN FOR 5 MINUTES",815,"PT5M","PATIENT SUPINE"
"CDISCPILOT01","VS","01-701-1034",102,"SYSBP","Systolic Blood Pressure","STANDING","197","mmHg","197",197,"mmHg",NA,NA,NA,8,"WEEK 8",56,"2014-08-26",57,"AFTER STANDING FOR 1 MINUTE",816,"PT1M","PATIENT STANDING"
"CDISCPILOT01","VS","01-701-1034",103,"SYSBP","Systolic Blood Pressure","STANDING","198","mmHg","198",198,"mmHg",NA,NA,NA,8,"WEEK 8",56,"2014-08-26",57,"AFTER STANDING FOR 3 MINUTES",817,"PT3M","PATIENT STANDING"
"CDISCPILOT01","VS","01-701-1034",104,"SYSBP","Systolic Blood Pressure","SUPINE","145","mmHg","145",145,"mmHg",NA,NA,NA,9,"WEEK 12",84,"2014-09-25",87,"AFTER LYING DOWN FOR 5 MINUTES",815,"PT5M","PATIENT SUPINE"
"CDISCPILOT01","VS","01-701-1034",105,"SYSBP","Systolic Blood Pressure","STANDING","150","mmHg","150",150,"mmHg",NA,NA,NA,9,"WEEK 12",84,"2014-09-25",87,"AFTER STANDING FOR 1 MINUTE",816,"PT1M","PATIENT STANDING"
"CDISCPILOT01","VS","01-701-1034",106,"SYSBP","Systolic Blood Pressure","STANDING","177","mmHg","177",177,"mmHg",NA,NA,NA,9,"WEEK 12",84,"2014-09-25",87,"AFTER STANDING FOR 3 MINUTES",817,"PT3M","PATIENT STANDING"
"CDISCPILOT01","VS","01-701-1034",107,"SYSBP","Systolic Blood Pressure","SUPINE","154","mmHg","154",154,"mmHg",NA,NA,NA,10,"WEEK 16",112,"2014-10-21",113,"AFTER LYING DOWN FOR 5 MINUTES",815,"PT5M","PATIENT SUPINE"
"CDISCPILOT01","VS","01-701-1034",108,"SYSBP","Systolic Blood Pressure","STANDING","183","mmHg","183",183,"mmHg",NA,NA,NA,10,"WEEK 16",112,"2014-10-21",113,"AFTER STANDING FOR 1 MINUTE",816,"PT1M","PATIENT STANDING"
"CDISCPILOT01","VS","01-701-1034",109,"SYSBP","Systolic Blood Pressure","STANDING","186","mmHg","186",186,"mmHg",NA,NA,NA,10,"WEEK 16",112,"2014-10-21",113,"AFTER STANDING FOR 3 MINUTES",817,"PT3M","PATIENT STANDING"
"CDISCPILOT01","VS","01-701-1034",110,"SYSBP","Systolic Blood Pressure","SUPINE","167","mmHg","167",167,"mmHg",NA,NA,NA,11,"WEEK 20",140,"2014-11-18",141,"AFTER LYING DOWN FOR 5 MINUTES",815,"PT5M","PATIENT SUPINE"
"CDISCPILOT01","VS","01-701-1034",111,"SYSBP","Systolic Blood Pressure","STANDING","181","mmHg","181",181,"mmHg",NA,NA,NA,11,"WEEK 20",140,"2014-11-18",141,"AFTER STANDING FOR 1 MINUTE",816,"PT1M","PATIENT STANDING"
"CDISCPILOT01","VS","01-701-1034",112,"SYSBP","Systolic Blood Pressure","STANDING","185","mmHg","185",185,"mmHg",NA,NA,NA,11,"WEEK 20",140,"2014-11-18",141,"AFTER STANDING FOR 3 MINUTES",817,"PT3M","PATIENT STANDING"
"CDISCPILOT01","VS","01-701-1034",113,"SYSBP","Systolic Blood Pressure","SUPINE","178","mmHg","178",178,"mmHg",NA,NA,NA,12,"WEEK 24",168,"2014-12-17",170,"AFTER LYING DOWN FOR 5 MINUTES",815,"PT5M","PATIENT SUPINE"
"CDISCPILOT01","VS","01-701-1034",114,"SYSBP","Systolic Blood Pressure","STANDING","198","mmHg","198",198,"mmHg",NA,NA,NA,12,"WEEK 24",168,"2014-12-17",170,"AFTER STANDING FOR 1 MINUTE",816,"PT1M","PATIENT STANDING"
"CDISCPILOT01","VS","01-701-1034",115,"SYSBP","Systolic Blood Pressure","STANDING","164","mmHg","164",164,"mmHg",NA,NA,NA,12,"WEEK 24",168,"2014-12-17",170,"AFTER STANDING FOR 3 MINUTES",817,"PT3M","PATIENT STANDING"
"CDISCPILOT01","VS","01-701-1034",116,"SYSBP","Systolic Blood Pressure","SUPINE","154","mmHg","154",154,"mmHg",NA,NA,NA,13,"WEEK 26",182,"2014-12-30",183,"AFTER LYING DOWN FOR 5 MINUTES",815,"PT5M","PATIENT SUPINE"
"CDISCPILOT01","VS","01-701-1034",117,"SYSBP","Systolic Blood Pressure","STANDING","150","mmHg","150",150,"mmHg",NA,NA,NA,13,"WEEK 26",182,"2014-12-30",183,"AFTER STANDING FOR 1 MINUTE",816,"PT1M","PATIENT STANDING"
"CDISCPILOT01","VS","01-701-1034",118,"SYSBP","Systolic Blood Pressure","STANDING","179","mmHg","179",179,"mmHg",NA,NA,NA,13,"WEEK 26",182,"2014-12-30",183,"AFTER STANDING FOR 3 MINUTES",817,"PT3M","PATIENT STANDING"
"CDISCPILOT01","VS","01-701-1034",119,"TEMP","Temperature",NA,"97.2","F","36.22",36.22,"C",NA,"ORAL CAVITY",NA,1,"SCREENING 1",-7,"2014-06-24",-7,NA,NA,NA,NA
"CDISCPILOT01","VS","01-701-1034",120,"TEMP","Temperature",NA,"97.7","F","36.5",36.5,"C",NA,"ORAL CAVITY",NA,2,"SCREENING 2",-1,"2014-06-29",-2,NA,NA,NA,NA
"CDISCPILOT01","VS","01-701-1034",121,"TEMP","Temperature",NA,"98.5","F","36.94",36.94,"C",NA,"ORAL CAVITY","Y",3,"BASELINE",1,"2014-07-01",1,NA,NA,NA,NA
"CDISCPILOT01","VS","01-701-1034",122,"TEMP","Temperature",NA,"97.8","F","36.56",36.56,"C",NA,"ORAL CAVITY",NA,4,"WEEK 2",14,"2014-07-15",15,NA,NA,NA,NA
"CDISCPILOT01","VS","01-701-1034",123,"TEMP","Temperature",NA,"97.9","F","36.61",36.61,"C",NA,"ORAL CAVITY",NA,5,"WEEK 4",28,"2014-07-29",29,NA,NA,NA,NA
"CDISCPILOT01","VS","01-701-1034",124,"TEMP","Temperature",NA,"98.3","F","36.83",36.83,"C",NA,"ORAL CAVITY",NA,6,"AMBUL ECG REMOVAL",30,"2014-07-31",31,NA,NA,NA,NA
"CDISCPILOT01","VS","01-701-1034",125,"TEMP","Temperature",NA,"98.7","F","37.06",37.06,"C",NA,"ORAL CAVITY",NA,7,"WEEK 6",42,"2014-08-11",42,NA,NA,NA,NA
"CDISCPILOT01","VS","01-701-1034",126,"TEMP","Temperature",NA,"98.1","F","36.72",36.72,"C",NA,"ORAL CAVITY",NA,8,"WEEK 8",56,"2014-08-26",57,NA,NA,NA,NA
"CDISCPILOT01","VS","01-701-1034",127,"TEMP","Temperature",NA,"98.7","F","37.06",37.06,"C",NA,"ORAL CAVITY",NA,9,"WEEK 12",84,"2014-09-25",87,NA,NA,NA,NA
"CDISCPILOT01","VS","01-701-1034",128,"TEMP","Temperature",NA,"98.5","F","36.94",36.94,"C",NA,"ORAL CAVITY",NA,10,"WEEK 16",112,"2014-10-21",113,NA,NA,NA,NA
"CDISCPILOT01","VS","01-701-1034",129,"TEMP","Temperature",NA,"98.4","F","36.89",36.89,"C",NA,"ORAL CAVITY",NA,11,"WEEK 20",140,"2014-11-18",141,NA,NA,NA,NA
"CDISCPILOT01","VS","01-701-1034",130,"TEMP","Temperature",NA,"98.1","F","36.72",36.72,"C",NA,"ORAL CAVITY",NA,12,"WEEK 24",168,"2014-12-17",170,NA,NA,NA,NA
"CDISCPILOT01","VS","01-701-1034",131,"TEMP","Temperature",NA,"97.8","F","36.56",36.56,"C",NA,"ORAL CAVITY",NA,13,"WEEK 26",182,"2014-12-30",183,NA,NA,NA,NA
"CDISCPILOT01","VS","01-701-1034",132,"WEIGHT","Weight",NA,"140.0","LB","63.5",63.5,"kg",NA,NA,NA,1,"SCREENING 1",-7,"2014-06-24",-7,NA,NA,NA,NA
"CDISCPILOT01","VS","01-701-1034",133,"WEIGHT","Weight",NA,"138.0","LB","62.6",62.6,"kg",NA,NA,"Y",3,"BASELINE",1,"2014-07-01",1,NA,NA,NA,NA
"CDISCPILOT01","VS","01-701-1034",134,"WEIGHT","Weight",NA,"138.0","LB","62.6",62.6,"kg",NA,NA,NA,4,"WEEK 2",14,"2014-07-15",15,NA,NA,NA,NA
"CDISCPILOT01","VS","01-701-1034",135,"WEIGHT","Weight",NA,"141.0","LB","63.96",63.96,"kg",NA,NA,NA,5,"WEEK 4",28,"2014-07-29",29,NA,NA,NA,NA
"CDISCPILOT01","VS","01-701-1034",136,"WEIGHT","Weight",NA,"141.0","LB","63.96",63.96,"kg",NA,NA,NA,7,"WEEK 6",42,"2014-08-11",42,NA,NA,NA,NA
"CDISCPILOT01","VS","01-701-1034",137,"WEIGHT","Weight",NA,"139.0","LB","63.05",63.05,"kg",NA,NA,NA,8,"WEEK 8",56,"2014-08-26",57,NA,NA,NA,NA
"CDISCPILOT01","VS","01-701-1034",138,"WEIGHT","Weight",NA,"139.0","LB","63.05",63.05,"kg",NA,NA,NA,9,"WEEK 12",84,"2014-09-25",87,NA,NA,NA,NA
"CDISCPILOT01","VS","01-701-1034",139,"WEIGHT","Weight",NA,"142.0","LB","64.41",64.41,"kg",NA,NA,NA,10,"WEEK 16",112,"2014-10-21",113,NA,NA,NA,NA
"CDISCPILOT01","VS","01-701-1034",140,"WEIGHT","Weight",NA,"143.0","LB","64.86",64.86,"kg",NA,NA,NA,11,"WEEK 20",140,"2014-11-18",141,NA,NA,NA,NA
"CDISCPILOT01","VS","01-701-1034",141,"WEIGHT","Weight",NA,"144.0","LB","65.32",65.32,"kg",NA,NA,NA,12,"WEEK 24",168,"2014-12-17",170,NA,NA,NA,NA
"CDISCPILOT01","VS","01-701-1034",142,"WEIGHT","Weight",NA,"141.0","LB","63.96",63.96,"kg",NA,NA,NA,13,"WEEK 26",182,"2014-12-30",183,NA,NA,NA,NA
"CDISCPILOT01","VS","01-701-1047",1,"DIABP","Diastolic Blood Pressure","SUPINE","68","mmHg","68",68,"mmHg",NA,NA,NA,1,"SCREENING 1",-7,"2013-01-22",-21,"AFTER LYING DOWN FOR 5 MINUTES",815,"PT5M","PATIENT SUPINE"
"CDISCPILOT01","VS","01-701-1047",2,"DIABP","Diastolic Blood Pressure","STANDING","71","mmHg","71",71,"mmHg",NA,NA,NA,1,"SCREENING 1",-7,"2013-01-22",-21,"AFTER STANDING FOR 1 MINUTE",816,"PT1M","PATIENT STANDING"
"CDISCPILOT01","VS","01-701-1047",3,"DIABP","Diastolic Blood Pressure","STANDING","83","mmHg","83",83,"mmHg",NA,NA,NA,1,"SCREENING 1",-7,"2013-01-22",-21,"AFTER STANDING FOR 3 MINUTES",817,"PT3M","PATIENT STANDING"
"CDISCPILOT01","VS","01-701-1047",4,"DIABP","Diastolic Blood Pressure","SUPINE","65","mmHg","65",65,"mmHg",NA,NA,NA,2,"SCREENING 2",-1,"2013-02-10",-2,"AFTER LYING DOWN FOR 5 MINUTES",815,"PT5M","PATIENT SUPINE"
"CDISCPILOT01","VS","01-701-1047",5,"DIABP","Diastolic Blood Pressure","STANDING","86","mmHg","86",86,"mmHg",NA,NA,NA,2,"SCREENING 2",-1,"2013-02-10",-2,"AFTER STANDING FOR 1 MINUTE",816,"PT1M","PATIENT STANDING"
"CDISCPILOT01","VS","01-701-1047",6,"DIABP","Diastolic Blood Pressure","STANDING","71","mmHg","71",71,"mmHg",NA,NA,NA,2,"SCREENING 2",-1,"2013-02-10",-2,"AFTER STANDING FOR 3 MINUTES",817,"PT3M","PATIENT STANDING"
"CDISCPILOT01","VS","01-701-1047",7,"DIABP","Diastolic Blood Pressure","SUPINE","61","mmHg","61",61,"mmHg",NA,NA,"Y",3,"BASELINE",1,"2013-02-12",1,"AFTER LYING DOWN FOR 5 MINUTES",815,"PT5M","PATIENT SUPINE"
"CDISCPILOT01","VS","01-701-1047",8,"DIABP","Diastolic Blood Pressure","STANDING","68","mmHg","68",68,"mmHg",NA,NA,"Y",3,"BASELINE",1,"2013-02-12",1,"AFTER STANDING FOR 1 MINUTE",816,"PT1M","PATIENT STANDING"
"CDISCPILOT01","VS","01-701-1047",9,"DIABP","Diastolic Blood Pressure","STANDING","78","mmHg","78",78,"mmHg",NA,NA,"Y",3,"BASELINE",1,"2013-02-12",1,"AFTER STANDING FOR 3 MINUTES",817,"PT3M","PATIENT STANDING"
"CDISCPILOT01","VS","01-701-1047",10,"DIABP","Diastolic Blood Pressure","SUPINE","72","mmHg","72",72,"mmHg",NA,NA,NA,3.5,"AMBUL ECG PLACEMENT",13,"2013-02-24",13,"AFTER LYING DOWN FOR 5 MINUTES",815,"PT5M","PATIENT SUPINE"
"CDISCPILOT01","VS","01-701-1047",11,"DIABP","Diastolic Blood Pressure","STANDING","56","mmHg","56",56,"mmHg",NA,NA,NA,3.5,"AMBUL ECG PLACEMENT",13,"2013-02-24",13,"AFTER STANDING FOR 1 MINUTE",816,"PT1M","PATIENT STANDING"
"CDISCPILOT01","VS","01-701-1047",12,"DIABP","Diastolic Blood Pressure","STANDING","73","mmHg","73",73,"mmHg",NA,NA,NA,3.5,"AMBUL ECG PLACEMENT",13,"2013-02-24",13,"AFTER STANDING FOR 3 MINUTES",817,"PT3M","PATIENT STANDING"
"CDISCPILOT01","VS","01-701-1047",13,"DIABP","Diastolic Blood Pressure","SUPINE","72","mmHg","72",72,"mmHg",NA,NA,NA,4,"WEEK 2",14,"2013-02-25",14,"AFTER LYING DOWN FOR 5 MINUTES",815,"PT5M","PATIENT SUPINE"
"CDISCPILOT01","VS","01-701-1047",14,"DIABP","Diastolic Blood Pressure","STANDING","84","mmHg","84",84,"mmHg",NA,NA,NA,4,"WEEK 2",14,"2013-02-25",14,"AFTER STANDING FOR 1 MINUTE",816,"PT1M","PATIENT STANDING"
"CDISCPILOT01","VS","01-701-1047",15,"DIABP","Diastolic Blood Pressure","STANDING","73","mmHg","73",73,"mmHg",NA,NA,NA,4,"WEEK 2",14,"2013-02-25",14,"AFTER STANDING FOR 3 MINUTES",817,"PT3M","PATIENT STANDING"
"CDISCPILOT01","VS","01-701-1047",16,"DIABP","Diastolic Blood Pressure","SUPINE","72","mmHg","72",72,"mmHg",NA,NA,NA,5,"WEEK 4",28,"2013-03-10",27,"AFTER LYING DOWN FOR 5 MINUTES",815,"PT5M","PATIENT SUPINE"
"CDISCPILOT01","VS","01-701-1047",17,"DIABP","Diastolic Blood Pressure","STANDING","71","mmHg","71",71,"mmHg",NA,NA,NA,5,"WEEK 4",28,"2013-03-10",27,"AFTER STANDING FOR 1 MINUTE",816,"PT1M","PATIENT STANDING"
"CDISCPILOT01","VS","01-701-1047",18,"DIABP","Diastolic Blood Pressure","STANDING","78","mmHg","78",78,"mmHg",NA,NA,NA,5,"WEEK 4",28,"2013-03-10",27,"AFTER STANDING FOR 3 MINUTES",817,"PT3M","PATIENT STANDING"
"CDISCPILOT01","VS","01-701-1047",19,"DIABP","Diastolic Blood Pressure","SUPINE","71","mmHg","71",71,"mmHg",NA,NA,NA,6,"AMBUL ECG REMOVAL",30,"2013-03-29",46,"AFTER LYING DOWN FOR 5 MINUTES",815,"PT5M","PATIENT SUPINE"
"CDISCPILOT01","VS","01-701-1047",20,"DIABP","Diastolic Blood Pressure","STANDING","63","mmHg","63",63,"mmHg",NA,NA,NA,6,"AMBUL ECG REMOVAL",30,"2013-03-29",46,"AFTER STANDING FOR 1 MINUTE",816,"PT1M","PATIENT STANDING"
"CDISCPILOT01","VS","01-701-1047",21,"DIABP","Diastolic Blood Pressure","STANDING","57","mmHg","57",57,"mmHg",NA,NA,NA,6,"AMBUL ECG REMOVAL",30,"2013-03-29",46,"AFTER STANDING FOR 3 MINUTES",817,"PT3M","PATIENT STANDING"
"CDISCPILOT01","VS","01-701-1047",22,"DIABP","Diastolic Blood Pressure","SUPINE","76","mmHg","76",76,"mmHg",NA,NA,NA,201,"RETRIEVAL",168,"2013-07-28",167,"AFTER LYING DOWN FOR 5 MINUTES",815,"PT5M","PATIENT SUPINE"
"CDISCPILOT01","VS","01-701-1047",23,"DIABP","Diastolic Blood Pressure","STANDING","71","mmHg","71",71,"mmHg",NA,NA,NA,201,"RETRIEVAL",168,"2013-07-28",167,"AFTER STANDING FOR 1 MINUTE",816,"PT1M","PATIENT STANDING"
"CDISCPILOT01","VS","01-701-1047",24,"DIABP","Diastolic Blood Pressure","STANDING","65","mmHg","65",65,"mmHg",NA,NA,NA,201,"RETRIEVAL",168,"2013-07-28",167,"AFTER STANDING FOR 3 MINUTES",817,"PT3M","PATIENT STANDING"
"CDISCPILOT01","VS","01-701-1047",25,"HEIGHT","Height",NA,"58.5","IN","148.59",148.59,"cm",NA,NA,NA,1,"SCREENING 1",-7,"2013-01-22",-21,NA,NA,NA,NA
"CDISCPILOT01","VS","01-701-1047",26,"PULSE","Pulse Rate","SUPINE","53","BEATS/MIN","53",53,"BEATS/MIN",NA,NA,NA,1,"SCREENING 1",-7,"2013-01-22",-21,"AFTER LYING DOWN FOR 5 MINUTES",815,"PT5M","PATIENT SUPINE"
"CDISCPILOT01","VS","01-701-1047",27,"PULSE","Pulse Rate","STANDING","64","BEATS/MIN","64",64,"BEATS/MIN",NA,NA,NA,1,"SCREENING 1",-7,"2013-01-22",-21,"AFTER STANDING FOR 1 MINUTE",816,"PT1M","PATIENT STANDING"
"CDISCPILOT01","VS","01-701-1047",28,"PULSE","Pulse Rate","STANDING","61","BEATS/MIN","61",61,"BEATS/MIN",NA,NA,NA,1,"SCREENING 1",-7,"2013-01-22",-21,"AFTER STANDING FOR 3 MINUTES",817,"PT3M","PATIENT STANDING"
"CDISCPILOT01","VS","01-701-1047",29,"PULSE","Pulse Rate","SUPINE","58","BEATS/MIN","58",58,"BEATS/MIN",NA,NA,NA,2,"SCREENING 2",-1,"2013-02-10",-2,"AFTER LYING DOWN FOR 5 MINUTES",815,"PT5M","PATIENT SUPINE"
"CDISCPILOT01","VS","01-701-1047",30,"PULSE","Pulse Rate","STANDING","74","BEATS/MIN","74",74,"BEATS/MIN",NA,NA,NA,2,"SCREENING 2",-1,"2013-02-10",-2,"AFTER STANDING FOR 1 MINUTE",816,"PT1M","PATIENT STANDING"
"CDISCPILOT01","VS","01-701-1047",31,"PULSE","Pulse Rate","STANDING","73","BEATS/MIN","73",73,"BEATS/MIN",NA,NA,NA,2,"SCREENING 2",-1,"2013-02-10",-2,"AFTER STANDING FOR 3 MINUTES",817,"PT3M","PATIENT STANDING"
"CDISCPILOT01","VS","01-701-1047",32,"PULSE","Pulse Rate","SUPINE","58","BEATS/MIN","58",58,"BEATS/MIN",NA,NA,"Y",3,"BASELINE",1,"2013-02-12",1,"AFTER LYING DOWN FOR 5 MINUTES",815,"PT5M","PATIENT SUPINE"
"CDISCPILOT01","VS","01-701-1047",33,"PULSE","Pulse Rate","STANDING","67","BEATS/MIN","67",67,"BEATS/MIN",NA,NA,"Y",3,"BASELINE",1,"2013-02-12",1,"AFTER STANDING FOR 1 MINUTE",816,"PT1M","PATIENT STANDING"
"CDISCPILOT01","VS","01-701-1047",34,"PULSE","Pulse Rate","STANDING","67","BEATS/MIN","67",67,"BEATS/MIN",NA,NA,"Y",3,"BASELINE",1,"2013-02-12",1,"AFTER STANDING FOR 3 MINUTES",817,"PT3M","PATIENT STANDING"
"CDISCPILOT01","VS","01-701-1047",35,"PULSE","Pulse Rate","SUPINE","62","BEATS/MIN","62",62,"BEATS/MIN",NA,NA,NA,3.5,"AMBUL ECG PLACEMENT",13,"2013-02-24",13,"AFTER LYING DOWN FOR 5 MINUTES",815,"PT5M","PATIENT SUPINE"
"CDISCPILOT01","VS","01-701-1047",36,"PULSE","Pulse Rate","STANDING","74","BEATS/MIN","74",74,"BEATS/MIN",NA,NA,NA,3.5,"AMBUL ECG PLACEMENT",13,"2013-02-24",13,"AFTER STANDING FOR 1 MINUTE",816,"PT1M","PATIENT STANDING"
"CDISCPILOT01","VS","01-701-1047",37,"PULSE","Pulse Rate","STANDING","72","BEATS/MIN","72",72,"BEATS/MIN",NA,NA,NA,3.5,"AMBUL ECG PLACEMENT",13,"2013-02-24",13,"AFTER STANDING FOR 3 MINUTES",817,"PT3M","PATIENT STANDING"
"CDISCPILOT01","VS","01-701-1047",38,"PULSE","Pulse Rate","SUPINE","66","BEATS/MIN","66",66,"BEATS/MIN",NA,NA,NA,4,"WEEK 2",14,"2013-02-25",14,"AFTER LYING DOWN FOR 5 MINUTES",815,"PT5M","PATIENT SUPINE"
"CDISCPILOT01","VS","01-701-1047",39,"PULSE","Pulse Rate","STANDING","75","BEATS/MIN","75",75,"BEATS/MIN",NA,NA,NA,4,"WEEK 2",14,"2013-02-25",14,"AFTER STANDING FOR 1 MINUTE",816,"PT1M","PATIENT STANDING"
"CDISCPILOT01","VS","01-701-1047",40,"PULSE","Pulse Rate","STANDING","78","BEATS/MIN","78",78,"BEATS/MIN",NA,NA,NA,4,"WEEK 2",14,"2013-02-25",14,"AFTER STANDING FOR 3 MINUTES",817,"PT3M","PATIENT STANDING"
"CDISCPILOT01","VS","01-701-1047",41,"PULSE","Pulse Rate","SUPINE","69","BEATS/MIN","69",69,"BEATS/MIN",NA,NA,NA,5,"WEEK 4",28,"2013-03-10",27,"AFTER LYING DOWN FOR 5 MINUTES",815,"PT5M","PATIENT SUPINE"
"CDISCPILOT01","VS","01-701-1047",42,"PULSE","Pulse Rate","STANDING","64","BEATS/MIN","64",64,"BEATS/MIN",NA,NA,NA,5,"WEEK 4",28,"2013-03-10",27,"AFTER STANDING FOR 1 MINUTE",816,"PT1M","PATIENT STANDING"
"CDISCPILOT01","VS","01-701-1047",43,"PULSE","Pulse Rate","STANDING","70","BEATS/MIN","70",70,"BEATS/MIN",NA,NA,NA,5,"WEEK 4",28,"2013-03-10",27,"AFTER STANDING FOR 3 MINUTES",817,"PT3M","PATIENT STANDING"
"CDISCPILOT01","VS","01-701-1047",44,"PULSE","Pulse Rate","SUPINE","78","BEATS/MIN","78",78,"BEATS/MIN",NA,NA,NA,6,"AMBUL ECG REMOVAL",30,"2013-03-29",46,"AFTER LYING DOWN FOR 5 MINUTES",815,"PT5M","PATIENT SUPINE"
"CDISCPILOT01","VS","01-701-1047",45,"PULSE","Pulse Rate","STANDING","90","BEATS/MIN","90",90,"BEATS/MIN",NA,NA,NA,6,"AMBUL ECG REMOVAL",30,"2013-03-29",46,"AFTER STANDING FOR 1 MINUTE",816,"PT1M","PATIENT STANDING"
"CDISCPILOT01","VS","01-701-1047",46,"PULSE","Pulse Rate","STANDING","87","BEATS/MIN","87",87,"BEATS/MIN",NA,NA,NA,6,"AMBUL ECG REMOVAL",30,"2013-03-29",46,"AFTER STANDING FOR 3 MINUTES",817,"PT3M","PATIENT STANDING"
"CDISCPILOT01","VS","01-701-1047",47,"PULSE","Pulse Rate","SUPINE","58","BEATS/MIN","58",58,"BEATS/MIN",NA,NA,NA,201,"RETRIEVAL",168,"2013-07-28",167,"AFTER LYING DOWN FOR 5 MINUTES",815,"PT5M","PATIENT SUPINE"
"CDISCPILOT01","VS","01-701-1047",48,"PULSE","Pulse Rate","STANDING","72","BEATS/MIN","72",72,"BEATS/MIN",NA,NA,NA,201,"RETRIEVAL",168,"2013-07-28",167,"AFTER STANDING FOR 1 MINUTE",816,"PT1M","PATIENT STANDING"
"CDISCPILOT01","VS","01-701-1047",49,"PULSE","Pulse Rate","STANDING","72","BEATS/MIN","72",72,"BEATS/MIN",NA,NA,NA,201,"RETRIEVAL",168,"2013-07-28",167,"AFTER STANDING FOR 3 MINUTES",817,"PT3M","PATIENT STANDING"
"CDISCPILOT01","VS","01-701-1047",50,"SYSBP","Systolic Blood Pressure","SUPINE","165","mmHg","165",165,"mmHg",NA,NA,NA,1,"SCREENING 1",-7,"2013-01-22",-21,"AFTER LYING DOWN FOR 5 MINUTES",815,"PT5M","PATIENT SUPINE"
"CDISCPILOT01","VS","01-701-1047",51,"SYSBP","Systolic Blood Pressure","STANDING","162","mmHg","162",162,"mmHg",NA,NA,NA,1,"SCREENING 1",-7,"2013-01-22",-21,"AFTER STANDING FOR 1 MINUTE",816,"PT1M","PATIENT STANDING"
"CDISCPILOT01","VS","01-701-1047",52,"SYSBP","Systolic Blood Pressure","STANDING","161","mmHg","161",161,"mmHg",NA,NA,NA,1,"SCREENING 1",-7,"2013-01-22",-21,"AFTER STANDING FOR 3 MINUTES",817,"PT3M","PATIENT STANDING"
"CDISCPILOT01","VS","01-701-1047",53,"SYSBP","Systolic Blood Pressure","SUPINE","159","mmHg","159",159,"mmHg",NA,NA,NA,2,"SCREENING 2",-1,"2013-02-10",-2,"AFTER LYING DOWN FOR 5 MINUTES",815,"PT5M","PATIENT SUPINE"
"CDISCPILOT01","VS","01-701-1047",54,"SYSBP","Systolic Blood Pressure","STANDING","152","mmHg","152",152,"mmHg",NA,NA,NA,2,"SCREENING 2",-1,"2013-02-10",-2,"AFTER STANDING FOR 1 MINUTE",816,"PT1M","PATIENT STANDING"
"CDISCPILOT01","VS","01-701-1047",55,"SYSBP","Systolic Blood Pressure","STANDING","138","mmHg","138",138,"mmHg",NA,NA,NA,2,"SCREENING 2",-1,"2013-02-10",-2,"AFTER STANDING FOR 3 MINUTES",817,"PT3M","PATIENT STANDING"
"CDISCPILOT01","VS","01-701-1047",56,"SYSBP","Systolic Blood Pressure","SUPINE","151","mmHg","151",151,"mmHg",NA,NA,"Y",3,"BASELINE",1,"2013-02-12",1,"AFTER LYING DOWN FOR 5 MINUTES",815,"PT5M","PATIENT SUPINE"
"CDISCPILOT01","VS","01-701-1047",57,"SYSBP","Systolic Blood Pressure","STANDING","145","mmHg","145",145,"mmHg",NA,NA,"Y",3,"BASELINE",1,"2013-02-12",1,"AFTER STANDING FOR 1 MINUTE",816,"PT1M","PATIENT STANDING"
"CDISCPILOT01","VS","01-701-1047",58,"SYSBP","Systolic Blood Pressure","STANDING","167","mmHg","167",167,"mmHg",NA,NA,"Y",3,"BASELINE",1,"2013-02-12",1,"AFTER STANDING FOR 3 MINUTES",817,"PT3M","PATIENT STANDING"
"CDISCPILOT01","VS","01-701-1047",59,"SYSBP","Systolic Blood Pressure","SUPINE","146","mmHg","146",146,"mmHg",NA,NA,NA,3.5,"AMBUL ECG PLACEMENT",13,"2013-02-24",13,"AFTER LYING DOWN FOR 5 MINUTES",815,"PT5M","PATIENT SUPINE"
"CDISCPILOT01","VS","01-701-1047",60,"SYSBP","Systolic Blood Pressure","STANDING","137","mmHg","137",137,"mmHg",NA,NA,NA,3.5,"AMBUL ECG PLACEMENT",13,"2013-02-24",13,"AFTER STANDING FOR 1 MINUTE",816,"PT1M","PATIENT STANDING"
"CDISCPILOT01","VS","01-701-1047",61,"SYSBP","Systolic Blood Pressure","STANDING","148","mmHg","148",148,"mmHg",NA,NA,NA,3.5,"AMBUL ECG PLACEMENT",13,"2013-02-24",13,"AFTER STANDING FOR 3 MINUTES",817,"PT3M","PATIENT STANDING"
"CDISCPILOT01","VS","01-701-1047",62,"SYSBP","Systolic Blood Pressure","SUPINE","145","mmHg","145",145,"mmHg",NA,NA,NA,4,"WEEK 2",14,"2013-02-25",14,"AFTER LYING DOWN FOR 5 MINUTES",815,"PT5M","PATIENT SUPINE"
"CDISCPILOT01","VS","01-701-1047",63,"SYSBP","Systolic Blood Pressure","STANDING","146","mmHg","146",146,"mmHg",NA,NA,NA,4,"WEEK 2",14,"2013-02-25",14,"AFTER STANDING FOR 1 MINUTE",816,"PT1M","PATIENT STANDING"
"CDISCPILOT01","VS","01-701-1047",64,"SYSBP","Systolic Blood Pressure","STANDING","153","mmHg","153",153,"mmHg",NA,NA,NA,4,"WEEK 2",14,"2013-02-25",14,"AFTER STANDING FOR 3 MINUTES",817,"PT3M","PATIENT STANDING"
"CDISCPILOT01","VS","01-701-1047",65,"SYSBP","Systolic Blood Pressure","SUPINE","135","mmHg","135",135,"mmHg",NA,NA,NA,5,"WEEK 4",28,"2013-03-10",27,"AFTER LYING DOWN FOR 5 MINUTES",815,"PT5M","PATIENT SUPINE"
"CDISCPILOT01","VS","01-701-1047",66,"SYSBP","Systolic Blood Pressure","STANDING","145","mmHg","145",145,"mmHg",NA,NA,NA,5,"WEEK 4",28,"2013-03-10",27,"AFTER STANDING FOR 1 MINUTE",816,"PT1M","PATIENT STANDING"
"CDISCPILOT01","VS","01-701-1047",67,"SYSBP","Systolic Blood Pressure","STANDING","143","mmHg","143",143,"mmHg",NA,NA,NA,5,"WEEK 4",28,"2013-03-10",27,"AFTER STANDING FOR 3 MINUTES",817,"PT3M","PATIENT STANDING"
"CDISCPILOT01","VS","01-701-1047",68,"SYSBP","Systolic Blood Pressure","SUPINE","123","mmHg","123",123,"mmHg",NA,NA,NA,6,"AMBUL ECG REMOVAL",30,"2013-03-29",46,"AFTER LYING DOWN FOR 5 MINUTES",815,"PT5M","PATIENT SUPINE"
"CDISCPILOT01","VS","01-701-1047",69,"SYSBP","Systolic Blood Pressure","STANDING","115","mmHg","115",115,"mmHg",NA,NA,NA,6,"AMBUL ECG REMOVAL",30,"2013-03-29",46,"AFTER STANDING FOR 1 MINUTE",816,"PT1M","PATIENT STANDING"
"CDISCPILOT01","VS","01-701-1047",70,"SYSBP","Systolic Blood Pressure","STANDING","123","mmHg","123",123,"mmHg",NA,NA,NA,6,"AMBUL ECG REMOVAL",30,"2013-03-29",46,"AFTER STANDING FOR 3 MINUTES",817,"PT3M","PATIENT STANDING"
"CDISCPILOT01","VS","01-701-1047",71,"SYSBP","Systolic Blood Pressure","SUPINE","139","mmHg","139",139,"mmHg",NA,NA,NA,201,"RETRIEVAL",168,"2013-07-28",167,"AFTER LYING DOWN FOR 5 MINUTES",815,"PT5M","PATIENT SUPINE"
"CDISCPILOT01","VS","01-701-1047",72,"SYSBP","Systolic Blood Pressure","STANDING","130","mmHg","130",130,"mmHg",NA,NA,NA,201,"RETRIEVAL",168,"2013-07-28",167,"AFTER STANDING FOR 1 MINUTE",816,"PT1M","PATIENT STANDING"
"CDISCPILOT01","VS","01-701-1047",73,"SYSBP","Systolic Blood Pressure","STANDING","139","mmHg","139",139,"mmHg",NA,NA,NA,201,"RETRIEVAL",168,"2013-07-28",167,"AFTER STANDING FOR 3 MINUTES",817,"PT3M","PATIENT STANDING"
"CDISCPILOT01","VS","01-701-1047",74,"TEMP","Temperature",NA,"97.9","F","36.61",36.61,"C",NA,"ORAL CAVITY",NA,2,"SCREENING 2",-1,"2013-02-10",-2,NA,NA,NA,NA
"CDISCPILOT01","VS","01-701-1047",75,"TEMP","Temperature",NA,"97.5","F","36.39",36.39,"C",NA,"ORAL CAVITY","Y",3,"BASELINE",1,"2013-02-12",1,NA,NA,NA,NA
"CDISCPILOT01","VS","01-701-1047",76,"TEMP","Temperature",NA,"97.0","F","36.11",36.11,"C",NA,"ORAL CAVITY",NA,3.5,"AMBUL ECG PLACEMENT",13,"2013-02-24",13,NA,NA,NA,NA
"CDISCPILOT01","VS","01-701-1047",77,"TEMP","Temperature",NA,"98.9","F","37.17",37.17,"C",NA,"ORAL CAVITY",NA,4,"WEEK 2",14,"2013-02-25",14,NA,NA,NA,NA
"CDISCPILOT01","VS","01-701-1047",78,"TEMP","Temperature",NA,"97.8","F","36.56",36.56,"C",NA,"ORAL CAVITY",NA,5,"WEEK 4",28,"2013-03-10",27,NA,NA,NA,NA
"CDISCPILOT01","VS","01-701-1047",79,"TEMP","Temperature",NA,"98.5","F","36.94",36.94,"C",NA,"ORAL CAVITY",NA,6,"AMBUL ECG REMOVAL",30,"2013-03-29",46,NA,NA,NA,NA
"CDISCPILOT01","VS","01-701-1047",80,"TEMP","Temperature",NA,"98.4","F","36.89",36.89,"C",NA,"ORAL CAVITY",NA,201,"RETRIEVAL",168,"2013-07-28",167,NA,NA,NA,NA
"CDISCPILOT01","VS","01-701-1047",81,"WEIGHT","Weight",NA,"146.0","LB","66.23",66.23,"kg",NA,NA,NA,1,"SCREENING 1",-7,"2013-01-22",-21,NA,NA,NA,NA
"CDISCPILOT01","VS","01-701-1047",82,"WEIGHT","Weight",NA,"148.0","LB","67.13",67.13,"kg",NA,NA,"Y",3,"BASELINE",1,"2013-02-12",1,NA,NA,NA,NA
"CDISCPILOT01","VS","01-701-1047",83,"WEIGHT","Weight",NA,"149.0","LB","67.59",67.59,"kg",NA,NA,NA,4,"WEEK 2",14,"2013-02-25",14,NA,NA,NA,NA
"CDISCPILOT01","VS","01-701-1047",84,"WEIGHT","Weight",NA,"149.0","LB","67.59",67.59,"kg",NA,NA,NA,5,"WEEK 4",28,"2013-03-10",27,NA,NA,NA,NA
"CDISCPILOT01","VS","01-701-1047",85,"WEIGHT","Weight",NA,"148.0","LB","67.13",67.13,"kg",NA,NA,NA,6,"AMBUL ECG REMOVAL",30,"2013-03-29",46,NA,NA,NA,NA
"CDISCPILOT01","VS","01-701-1097",1,"DIABP","Diastolic Blood Pressure","SUPINE","72","mmHg","72",72,"mmHg",NA,NA,NA,1,"SCREENING 1",-7,"2013-12-23",-9,"AFTER LYING DOWN FOR 5 MINUTES",815,"PT5M","PATIENT SUPINE"
"CDISCPILOT01","VS","01-701-1097",2,"DIABP","Diastolic Blood Pressure","STANDING","74","mmHg","74",74,"mmHg",NA,NA,NA,1,"SCREENING 1",-7,"2013-12-23",-9,"AFTER STANDING FOR 1 MINUTE",816,"PT1M","PATIENT STANDING"
"CDISCPILOT01","VS","01-701-1097",3,"DIABP","Diastolic Blood Pressure","STANDING","79","mmHg","79",79,"mmHg",NA,NA,NA,1,"SCREENING 1",-7,"2013-12-23",-9,"AFTER STANDING FOR 3 MINUTES",817,"PT3M","PATIENT STANDING"
"CDISCPILOT01","VS","01-701-1097",4,"DIABP","Diastolic Blood Pressure","SUPINE","65","mmHg","65",65,"mmHg",NA,NA,NA,2,"SCREENING 2",-1,"2013-12-30",-2,"AFTER LYING DOWN FOR 5 MINUTES",815,"PT5M","PATIENT SUPINE"
"CDISCPILOT01","VS","01-701-1097",5,"DIABP","Diastolic Blood Pressure","STANDING","76","mmHg","76",76,"mmHg",NA,NA,NA,2,"SCREENING 2",-1,"2013-12-30",-2,"AFTER STANDING FOR 1 MINUTE",816,"PT1M","PATIENT STANDING"
"CDISCPILOT01","VS","01-701-1097",6,"DIABP","Diastolic Blood Pressure","STANDING","80","mmHg","80",80,"mmHg",NA,NA,NA,2,"SCREENING 2",-1,"2013-12-30",-2,"AFTER STANDING FOR 3 MINUTES",817,"PT3M","PATIENT STANDING"
"CDISCPILOT01","VS","01-701-1097",7,"DIABP","Diastolic Blood Pressure","SUPINE","72","mmHg","72",72,"mmHg",NA,NA,"Y",3,"BASELINE",1,"2014-01-01",1,"AFTER LYING DOWN FOR 5 MINUTES",815,"PT5M","PATIENT SUPINE"
"CDISCPILOT01","VS","01-701-1097",8,"DIABP","Diastolic Blood Pressure","STANDING","78","mmHg","78",78,"mmHg",NA,NA,"Y",3,"BASELINE",1,"2014-01-01",1,"AFTER STANDING FOR 1 MINUTE",816,"PT1M","PATIENT STANDING"
"CDISCPILOT01","VS","01-701-1097",9,"DIABP","Diastolic Blood Pressure","STANDING","80","mmHg","80",80,"mmHg",NA,NA,"Y",3,"BASELINE",1,"2014-01-01",1,"AFTER STANDING FOR 3 MINUTES",817,"PT3M","PATIENT STANDING"
"CDISCPILOT01","VS","01-701-1097",10,"DIABP","Diastolic Blood Pressure","SUPINE","67","mmHg","67",67,"mmHg",NA,NA,NA,3.5,"AMBUL ECG PLACEMENT",13,"2014-01-14",14,"AFTER LYING DOWN FOR 5 MINUTES",815,"PT5M","PATIENT SUPINE"
"CDISCPILOT01","VS","01-701-1097",11,"DIABP","Diastolic Blood Pressure","STANDING","79","mmHg","79",79,"mmHg",NA,NA,NA,3.5,"AMBUL ECG PLACEMENT",13,"2014-01-14",14,"AFTER STANDING FOR 1 MINUTE",816,"PT1M","PATIENT STANDING"
"CDISCPILOT01","VS","01-701-1097",12,"DIABP","Diastolic Blood Pressure","STANDING","67","mmHg","67",67,"mmHg",NA,NA,NA,3.5,"AMBUL ECG PLACEMENT",13,"2014-01-14",14,"AFTER STANDING FOR 3 MINUTES",817,"PT3M","PATIENT STANDING"
"CDISCPILOT01","VS","01-701-1097",13,"DIABP","Diastolic Blood Pressure","SUPINE","72","mmHg","72",72,"mmHg",NA,NA,NA,4,"WEEK 2",14,"2014-01-15",15,"AFTER LYING DOWN FOR 5 MINUTES",815,"PT5M","PATIENT SUPINE"
"CDISCPILOT01","VS","01-701-1097",14,"DIABP","Diastolic Blood Pressure","STANDING","82","mmHg","82",82,"mmHg",NA,NA,NA,4,"WEEK 2",14,"2014-01-15",15,"AFTER STANDING FOR 1 MINUTE",816,"PT1M","PATIENT STANDING"
"CDISCPILOT01","VS","01-701-1097",15,"DIABP","Diastolic Blood Pressure","STANDING","84","mmHg","84",84,"mmHg",NA,NA,NA,4,"WEEK 2",14,"2014-01-15",15,"AFTER STANDING FOR 3 MINUTES",817,"PT3M","PATIENT STANDING"
"CDISCPILOT01","VS","01-701-1097",16,"DIABP","Diastolic Blood Pressure","SUPINE","71","mmHg","71",71,"mmHg",NA,NA,NA,5,"WEEK 4",28,"2014-01-29",29,"AFTER LYING DOWN FOR 5 MINUTES",815,"PT5M","PATIENT SUPINE"
"CDISCPILOT01","VS","01-701-1097",17,"DIABP","Diastolic Blood Pressure","STANDING","70","mmHg","70",70,"mmHg",NA,NA,NA,5,"WEEK 4",28,"2014-01-29",29,"AFTER STANDING FOR 1 MINUTE",816,"PT1M","PATIENT STANDING"
"CDISCPILOT01","VS","01-701-1097",18,"DIABP","Diastolic Blood Pressure","STANDING","68","mmHg","68",68,"mmHg",NA,NA,NA,5,"WEEK 4",28,"2014-01-29",29,"AFTER STANDING FOR 3 MINUTES",817,"PT3M","PATIENT STANDING"
"CDISCPILOT01","VS","01-701-1097",19,"DIABP","Diastolic Blood Pressure","SUPINE","68","mmHg","68",68,"mmHg",NA,NA,NA,6,"AMBUL ECG REMOVAL",30,"2014-02-04",35,"AFTER LYING DOWN FOR 5 MINUTES",815,"PT5M","PATIENT SUPINE"
"CDISCPILOT01","VS","01-701-1097",20,"DIABP","Diastolic Blood Pressure","STANDING","70","mmHg","70",70,"mmHg",NA,NA,NA,6,"AMBUL ECG REMOVAL",30,"2014-02-04",35,"AFTER STANDING FOR 1 MINUTE",816,"PT1M","PATIENT STANDING"
"CDISCPILOT01","VS","01-701-1097",21,"DIABP","Diastolic Blood Pressure","STANDING","70","mmHg","70",70,"mmHg",NA,NA,NA,6,"AMBUL ECG REMOVAL",30,"2014-02-04",35,"AFTER STANDING FOR 3 MINUTES",817,"PT3M","PATIENT STANDING"
"CDISCPILOT01","VS","01-701-1097",22,"DIABP","Diastolic Blood Pressure","SUPINE","68","mmHg","68",68,"mmHg",NA,NA,NA,7,"WEEK 6",42,"2014-02-11",42,"AFTER LYING DOWN FOR 5 MINUTES",815,"PT5M","PATIENT SUPINE"
"CDISCPILOT01","VS","01-701-1097",23,"DIABP","Diastolic Blood Pressure","STANDING","70","mmHg","70",70,"mmHg",NA,NA,NA,7,"WEEK 6",42,"2014-02-11",42,"AFTER STANDING FOR 1 MINUTE",816,"PT1M","PATIENT STANDING"
"CDISCPILOT01","VS","01-701-1097",24,"DIABP","Diastolic Blood Pressure","STANDING","78","mmHg","78",78,"mmHg",NA,NA,NA,7,"WEEK 6",42,"2014-02-11",42,"AFTER STANDING FOR 3 MINUTES",817,"PT3M","PATIENT STANDING"
"CDISCPILOT01","VS","01-701-1097",25,"DIABP","Diastolic Blood Pressure","SUPINE","75","mmHg","75",75,"mmHg",NA,NA,NA,8,"WEEK 8",56,"2014-02-26",57,"AFTER LYING DOWN FOR 5 MINUTES",815,"PT5M","PATIENT SUPINE"
"CDISCPILOT01","VS","01-701-1097",26,"DIABP","Diastolic Blood Pressure","STANDING","73","mmHg","73",73,"mmHg",NA,NA,NA,8,"WEEK 8",56,"2014-02-26",57,"AFTER STANDING FOR 1 MINUTE",816,"PT1M","PATIENT STANDING"
"CDISCPILOT01","VS","01-701-1097",27,"DIABP","Diastolic Blood Pressure","STANDING","66","mmHg","66",66,"mmHg",NA,NA,NA,8,"WEEK 8",56,"2014-02-26",57,"AFTER STANDING FOR 3 MINUTES",817,"PT3M","PATIENT STANDING"
"CDISCPILOT01","VS","01-701-1097",28,"DIABP","Diastolic Blood Pressure","SUPINE","74","mmHg","74",74,"mmHg",NA,NA,NA,9,"WEEK 12",84,"2014-03-26",85,"AFTER LYING DOWN FOR 5 MINUTES",815,"PT5M","PATIENT SUPINE"
"CDISCPILOT01","VS","01-701-1097",29,"DIABP","Diastolic Blood Pressure","STANDING","70","mmHg","70",70,"mmHg",NA,NA,NA,9,"WEEK 12",84,"2014-03-26",85,"AFTER STANDING FOR 1 MINUTE",816,"PT1M","PATIENT STANDING"
"CDISCPILOT01","VS","01-701-1097",30,"DIABP","Diastolic Blood Pressure","STANDING","72","mmHg","72",72,"mmHg",NA,NA,NA,9,"WEEK 12",84,"2014-03-26",85,"AFTER STANDING FOR 3 MINUTES",817,"PT3M","PATIENT STANDING"
"CDISCPILOT01","VS","01-701-1097",31,"DIABP","Diastolic Blood Pressure","SUPINE","70","mmHg","70",70,"mmHg",NA,NA,NA,10,"WEEK 16",112,"2014-04-23",113,"AFTER LYING DOWN FOR 5 MINUTES",815,"PT5M","PATIENT SUPINE"
"CDISCPILOT01","VS","01-701-1097",32,"DIABP","Diastolic Blood Pressure","STANDING","76","mmHg","76",76,"mmHg",NA,NA,NA,10,"WEEK 16",112,"2014-04-23",113,"AFTER STANDING FOR 1 MINUTE",816,"PT1M","PATIENT STANDING"
"CDISCPILOT01","VS","01-701-1097",33,"DIABP","Diastolic Blood Pressure","STANDING","74","mmHg","74",74,"mmHg",NA,NA,NA,10,"WEEK 16",112,"2014-04-23",113,"AFTER STANDING FOR 3 MINUTES",817,"PT3M","PATIENT STANDING"
"CDISCPILOT01","VS","01-701-1097",34,"DIABP","Diastolic Blood Pressure","SUPINE","67","mmHg","67",67,"mmHg",NA,NA,NA,11,"WEEK 20",140,"2014-05-21",141,"AFTER LYING DOWN FOR 5 MINUTES",815,"PT5M","PATIENT SUPINE"
"CDISCPILOT01","VS","01-701-1097",35,"DIABP","Diastolic Blood Pressure","STANDING","58","mmHg","58",58,"mmHg",NA,NA,NA,11,"WEEK 20",140,"2014-05-21",141,"AFTER STANDING FOR 1 MINUTE",816,"PT1M","PATIENT STANDING"
"CDISCPILOT01","VS","01-701-1097",36,"DIABP","Diastolic Blood Pressure","STANDING","61","mmHg","61",61,"mmHg",NA,NA,NA,11,"WEEK 20",140,"2014-05-21",141,"AFTER STANDING FOR 3 MINUTES",817,"PT3M","PATIENT STANDING"
"CDISCPILOT01","VS","01-701-1097",37,"DIABP","Diastolic Blood Pressure","SUPINE","83","mmHg","83",83,"mmHg",NA,NA,NA,12,"WEEK 24",168,"2014-06-18",169,"AFTER LYING DOWN FOR 5 MINUTES",815,"PT5M","PATIENT SUPINE"
"CDISCPILOT01","VS","01-701-1097",38,"DIABP","Diastolic Blood Pressure","STANDING","84","mmHg","84",84,"mmHg",NA,NA,NA,12,"WEEK 24",168,"2014-06-18",169,"AFTER STANDING FOR 1 MINUTE",816,"PT1M","PATIENT STANDING"
"CDISCPILOT01","VS","01-701-1097",39,"DIABP","Diastolic Blood Pressure","STANDING","84","mmHg","84",84,"mmHg",NA,NA,NA,12,"WEEK 24",168,"2014-06-18",169,"AFTER STANDING FOR 3 MINUTES",817,"PT3M","PATIENT STANDING"
"CDISCPILOT01","VS","01-701-1097",40,"DIABP","Diastolic Blood Pressure","SUPINE","72","mmHg","72",72,"mmHg",NA,NA,NA,13,"WEEK 26",182,"2014-07-09",190,"AFTER LYING DOWN FOR 5 MINUTES",815,"PT5M","PATIENT SUPINE"
"CDISCPILOT01","VS","01-701-1097",41,"DIABP","Diastolic Blood Pressure","STANDING","78","mmHg","78",78,"mmHg",NA,NA,NA,13,"WEEK 26",182,"2014-07-09",190,"AFTER STANDING FOR 1 MINUTE",816,"PT1M","PATIENT STANDING"
"CDISCPILOT01","VS","01-701-1097",42,"DIABP","Diastolic Blood Pressure","STANDING","77","mmHg","77",77,"mmHg",NA,NA,NA,13,"WEEK 26",182,"2014-07-09",190,"AFTER STANDING FOR 3 MINUTES",817,"PT3M","PATIENT STANDING"
"CDISCPILOT01","VS","01-701-1097",43,"HEIGHT","Height",NA,"066.5","IN","168.91",168.91,"cm",NA,NA,NA,1,"SCREENING 1",-7,"2013-12-23",-9,NA,NA,NA,NA
"CDISCPILOT01","VS","01-701-1097",44,"PULSE","Pulse Rate","SUPINE","59","BEATS/MIN","59",59,"BEATS/MIN",NA,NA,NA,1,"SCREENING 1",-7,"2013-12-23",-9,"AFTER LYING DOWN FOR 5 MINUTES",815,"PT5M","PATIENT SUPINE"
"CDISCPILOT01","VS","01-701-1097",45,"PULSE","Pulse Rate","STANDING","66","BEATS/MIN","66",66,"BEATS/MIN",NA,NA,NA,1,"SCREENING 1",-7,"2013-12-23",-9,"AFTER STANDING FOR 1 MINUTE",816,"PT1M","PATIENT STANDING"
"CDISCPILOT01","VS","01-701-1097",46,"PULSE","Pulse Rate","STANDING","65","BEATS/MIN","65",65,"BEATS/MIN",NA,NA,NA,1,"SCREENING 1",-7,"2013-12-23",-9,"AFTER STANDING FOR 3 MINUTES",817,"PT3M","PATIENT STANDING"
"CDISCPILOT01","VS","01-701-1097",47,"PULSE","Pulse Rate","SUPINE","60","BEATS/MIN","60",60,"BEATS/MIN",NA,NA,NA,2,"SCREENING 2",-1,"2013-12-30",-2,"AFTER LYING DOWN FOR 5 MINUTES",815,"PT5M","PATIENT SUPINE"
"CDISCPILOT01","VS","01-701-1097",48,"PULSE","Pulse Rate","STANDING","70","BEATS/MIN","70",70,"BEATS/MIN",NA,NA,NA,2,"SCREENING 2",-1,"2013-12-30",-2,"AFTER STANDING FOR 1 MINUTE",816,"PT1M","PATIENT STANDING"
"CDISCPILOT01","VS","01-701-1097",49,"PULSE","Pulse Rate","STANDING","66","BEATS/MIN","66",66,"BEATS/MIN",NA,NA,NA,2,"SCREENING 2",-1,"2013-12-30",-2,"AFTER STANDING FOR 3 MINUTES",817,"PT3M","PATIENT STANDING"
"CDISCPILOT01","VS","01-701-1097",50,"PULSE","Pulse Rate","SUPINE","60","BEATS/MIN","60",60,"BEATS/MIN",NA,NA,"Y",3,"BASELINE",1,"2014-01-01",1,"AFTER LYING DOWN FOR 5 MINUTES",815,"PT5M","PATIENT SUPINE"
"CDISCPILOT01","VS","01-701-1097",51,"PULSE","Pulse Rate","STANDING","68","BEATS/MIN","68",68,"BEATS/MIN",NA,NA,"Y",3,"BASELINE",1,"2014-01-01",1,"AFTER STANDING FOR 1 MINUTE",816,"PT1M","PATIENT STANDING"
"CDISCPILOT01","VS","01-701-1097",52,"PULSE","Pulse Rate","STANDING","64","BEATS/MIN","64",64,"BEATS/MIN",NA,NA,"Y",3,"BASELINE",1,"2014-01-01",1,"AFTER STANDING FOR 3 MINUTES",817,"PT3M","PATIENT STANDING"
"CDISCPILOT01","VS","01-701-1097",53,"PULSE","Pulse Rate","SUPINE","55","BEATS/MIN","55",55,"BEATS/MIN",NA,NA,NA,3.5,"AMBUL ECG PLACEMENT",13,"2014-01-14",14,"AFTER LYING DOWN FOR 5 MINUTES",815,"PT5M","PATIENT SUPINE"
"CDISCPILOT01","VS","01-701-1097",54,"PULSE","Pulse Rate","STANDING","59","BEATS/MIN","59",59,"BEATS/MIN",NA,NA,NA,3.5,"AMBUL ECG PLACEMENT",13,"2014-01-14",14,"AFTER STANDING FOR 1 MINUTE",816,"PT1M","PATIENT STANDING"
"CDISCPILOT01","VS","01-701-1097",55,"PULSE","Pulse Rate","STANDING","60","BEATS/MIN","60",60,"BEATS/MIN",NA,NA,NA,3.5,"AMBUL ECG PLACEMENT",13,"2014-01-14",14,"AFTER STANDING FOR 3 MINUTES",817,"PT3M","PATIENT STANDING"
"CDISCPILOT01","VS","01-701-1097",56,"PULSE","Pulse Rate","SUPINE","66","BEATS/MIN","66",66,"BEATS/MIN",NA,NA,NA,4,"WEEK 2",14,"2014-01-15",15,"AFTER LYING DOWN FOR 5 MINUTES",815,"PT5M","PATIENT SUPINE"
"CDISCPILOT01","VS","01-701-1097",57,"PULSE","Pulse Rate","STANDING","72","BEATS/MIN","72",72,"BEATS/MIN",NA,NA,NA,4,"WEEK 2",14,"2014-01-15",15,"AFTER STANDING FOR 1 MINUTE",816,"PT1M","PATIENT STANDING"
"CDISCPILOT01","VS","01-701-1097",58,"PULSE","Pulse Rate","STANDING","68","BEATS/MIN","68",68,"BEATS/MIN",NA,NA,NA,4,"WEEK 2",14,"2014-01-15",15,"AFTER STANDING FOR 3 MINUTES",817,"PT3M","PATIENT STANDING"
"CDISCPILOT01","VS","01-701-1097",59,"PULSE","Pulse Rate","SUPINE","50","BEATS/MIN","50",50,"BEATS/MIN",NA,NA,NA,5,"WEEK 4",28,"2014-01-29",29,"AFTER LYING DOWN FOR 5 MINUTES",815,"PT5M","PATIENT SUPINE"
"CDISCPILOT01","VS","01-701-1097",60,"PULSE","Pulse Rate","STANDING","54","BEATS/MIN","54",54,"BEATS/MIN",NA,NA,NA,5,"WEEK 4",28,"2014-01-29",29,"AFTER STANDING FOR 1 MINUTE",816,"PT1M","PATIENT STANDING"
"CDISCPILOT01","VS","01-701-1097",61,"PULSE","Pulse Rate","STANDING","54","BEATS/MIN","54",54,"BEATS/MIN",NA,NA,NA,5,"WEEK 4",28,"2014-01-29",29,"AFTER STANDING FOR 3 MINUTES",817,"PT3M","PATIENT STANDING"
"CDISCPILOT01","VS","01-701-1097",62,"PULSE","Pulse Rate","SUPINE","62","BEATS/MIN","62",62,"BEATS/MIN",NA,NA,NA,6,"AMBUL ECG REMOVAL",30,"2014-02-04",35,"AFTER LYING DOWN FOR 5 MINUTES",815,"PT5M","PATIENT SUPINE"
"CDISCPILOT01","VS","01-701-1097",63,"PULSE","Pulse Rate","STANDING","68","BEATS/MIN","68",68,"BEATS/MIN",NA,NA,NA,6,"AMBUL ECG REMOVAL",30,"2014-02-04",35,"AFTER STANDING FOR 1 MINUTE",816,"PT1M","PATIENT STANDING"
"CDISCPILOT01","VS","01-701-1097",64,"PULSE","Pulse Rate","STANDING","66","BEATS/MIN","66",66,"BEATS/MIN",NA,NA,NA,6,"AMBUL ECG REMOVAL",30,"2014-02-04",35,"AFTER STANDING FOR 3 MINUTES",817,"PT3M","PATIENT STANDING"
"CDISCPILOT01","VS","01-701-1097",65,"PULSE","Pulse Rate","SUPINE","64","BEATS/MIN","64",64,"BEATS/MIN",NA,NA,NA,7,"WEEK 6",42,"2014-02-11",42,"AFTER LYING DOWN FOR 5 MINUTES",815,"PT5M","PATIENT SUPINE"
"CDISCPILOT01","VS","01-701-1097",66,"PULSE","Pulse Rate","STANDING","76","BEATS/MIN","76",76,"BEATS/MIN",NA,NA,NA,7,"WEEK 6",42,"2014-02-11",42,"AFTER STANDING FOR 1 MINUTE",816,"PT1M","PATIENT STANDING"
"CDISCPILOT01","VS","01-701-1097",67,"PULSE","Pulse Rate","STANDING","74","BEATS/MIN","74",74,"BEATS/MIN",NA,NA,NA,7,"WEEK 6",42,"2014-02-11",42,"AFTER STANDING FOR 3 MINUTES",817,"PT3M","PATIENT STANDING"
"CDISCPILOT01","VS","01-701-1097",68,"PULSE","Pulse Rate","SUPINE","54","BEATS/MIN","54",54,"BEATS/MIN",NA,NA,NA,8,"WEEK 8",56,"2014-02-26",57,"AFTER LYING DOWN FOR 5 MINUTES",815,"PT5M","PATIENT SUPINE"
"CDISCPILOT01","VS","01-701-1097",69,"PULSE","Pulse Rate","STANDING","62","BEATS/MIN","62",62,"BEATS/MIN",NA,NA,NA,8,"WEEK 8",56,"2014-02-26",57,"AFTER STANDING FOR 1 MINUTE",816,"PT1M","PATIENT STANDING"
"CDISCPILOT01","VS","01-701-1097",70,"PULSE","Pulse Rate","STANDING","61","BEATS/MIN","61",61,"BEATS/MIN",NA,NA,NA,8,"WEEK 8",56,"2014-02-26",57,"AFTER STANDING FOR 3 MINUTES",817,"PT3M","PATIENT STANDING"
"CDISCPILOT01","VS","01-701-1097",71,"PULSE","Pulse Rate","SUPINE","58","BEATS/MIN","58",58,"BEATS/MIN",NA,NA,NA,9,"WEEK 12",84,"2014-03-26",85,"AFTER LYING DOWN FOR 5 MINUTES",815,"PT5M","PATIENT SUPINE"
"CDISCPILOT01","VS","01-701-1097",72,"PULSE","Pulse Rate","STANDING","72","BEATS/MIN","72",72,"BEATS/MIN",NA,NA,NA,9,"WEEK 12",84,"2014-03-26",85,"AFTER STANDING FOR 1 MINUTE",816,"PT1M","PATIENT STANDING"
"CDISCPILOT01","VS","01-701-1097",73,"PULSE","Pulse Rate","STANDING","70","BEATS/MIN","70",70,"BEATS/MIN",NA,NA,NA,9,"WEEK 12",84,"2014-03-26",85,"AFTER STANDING FOR 3 MINUTES",817,"PT3M","PATIENT STANDING"
"CDISCPILOT01","VS","01-701-1097",74,"PULSE","Pulse Rate","SUPINE","67","BEATS/MIN","67",67,"BEATS/MIN",NA,NA,NA,10,"WEEK 16",112,"2014-04-23",113,"AFTER LYING DOWN FOR 5 MINUTES",815,"PT5M","PATIENT SUPINE"
"CDISCPILOT01","VS","01-701-1097",75,"PULSE","Pulse Rate","STANDING","74","BEATS/MIN","74",74,"BEATS/MIN",NA,NA,NA,10,"WEEK 16",112,"2014-04-23",113,"AFTER STANDING FOR 1 MINUTE",816,"PT1M","PATIENT STANDING"
"CDISCPILOT01","VS","01-701-1097",76,"PULSE","Pulse Rate","STANDING","72","BEATS/MIN","72",72,"BEATS/MIN",NA,NA,NA,10,"WEEK 16",112,"2014-04-23",113,"AFTER STANDING FOR 3 MINUTES",817,"PT3M","PATIENT STANDING"
"CDISCPILOT01","VS","01-701-1097",77,"PULSE","Pulse Rate","SUPINE","61","BEATS/MIN","61",61,"BEATS/MIN",NA,NA,NA,11,"WEEK 20",140,"2014-05-21",141,"AFTER LYING DOWN FOR 5 MINUTES",815,"PT5M","PATIENT SUPINE"
"CDISCPILOT01","VS","01-701-1097",78,"PULSE","Pulse Rate","STANDING","70","BEATS/MIN","70",70,"BEATS/MIN",NA,NA,NA,11,"WEEK 20",140,"2014-05-21",141,"AFTER STANDING FOR 1 MINUTE",816,"PT1M","PATIENT STANDING"
"CDISCPILOT01","VS","01-701-1097",79,"PULSE","Pulse Rate","STANDING","67","BEATS/MIN","67",67,"BEATS/MIN",NA,NA,NA,11,"WEEK 20",140,"2014-05-21",141,"AFTER STANDING FOR 3 MINUTES",817,"PT3M","PATIENT STANDING"
"CDISCPILOT01","VS","01-701-1097",80,"PULSE","Pulse Rate","SUPINE","65","BEATS/MIN","65",65,"BEATS/MIN",NA,NA,NA,12,"WEEK 24",168,"2014-06-18",169,"AFTER LYING DOWN FOR 5 MINUTES",815,"PT5M","PATIENT SUPINE"
"CDISCPILOT01","VS","01-701-1097",81,"PULSE","Pulse Rate","STANDING","74","BEATS/MIN","74",74,"BEATS/MIN",NA,NA,NA,12,"WEEK 24",168,"2014-06-18",169,"AFTER STANDING FOR 1 MINUTE",816,"PT1M","PATIENT STANDING"
"CDISCPILOT01","VS","01-701-1097",82,"PULSE","Pulse Rate","STANDING","72","BEATS/MIN","72",72,"BEATS/MIN",NA,NA,NA,12,"WEEK 24",168,"2014-06-18",169,"AFTER STANDING FOR 3 MINUTES",817,"PT3M","PATIENT STANDING"
"CDISCPILOT01","VS","01-701-1097",83,"PULSE","Pulse Rate","SUPINE","58","BEATS/MIN","58",58,"BEATS/MIN",NA,NA,NA,13,"WEEK 26",182,"2014-07-09",190,"AFTER LYING DOWN FOR 5 MINUTES",815,"PT5M","PATIENT SUPINE"
"CDISCPILOT01","VS","01-701-1097",84,"PULSE","Pulse Rate","STANDING","76","BEATS/MIN","76",76,"BEATS/MIN",NA,NA,NA,13,"WEEK 26",182,"2014-07-09",190,"AFTER STANDING FOR 1 MINUTE",816,"PT1M","PATIENT STANDING"
"CDISCPILOT01","VS","01-701-1097",85,"PULSE","Pulse Rate","STANDING","66","BEATS/MIN","66",66,"BEATS/MIN",NA,NA,NA,13,"WEEK 26",182,"2014-07-09",190,"AFTER STANDING FOR 3 MINUTES",817,"PT3M","PATIENT STANDING"
"CDISCPILOT01","VS","01-701-1097",86,"SYSBP","Systolic Blood Pressure","SUPINE","138","mmHg","138",138,"mmHg",NA,NA,NA,1,"SCREENING 1",-7,"2013-12-23",-9,"AFTER LYING DOWN FOR 5 MINUTES",815,"PT5M","PATIENT SUPINE"
"CDISCPILOT01","VS","01-701-1097",87,"SYSBP","Systolic Blood Pressure","STANDING","137","mmHg","137",137,"mmHg",NA,NA,NA,1,"SCREENING 1",-7,"2013-12-23",-9,"AFTER STANDING FOR 1 MINUTE",816,"PT1M","PATIENT STANDING"
"CDISCPILOT01","VS","01-701-1097",88,"SYSBP","Systolic Blood Pressure","STANDING","139","mmHg","139",139,"mmHg",NA,NA,NA,1,"SCREENING 1",-7,"2013-12-23",-9,"AFTER STANDING FOR 3 MINUTES",817,"PT3M","PATIENT STANDING"
"CDISCPILOT01","VS","01-701-1097",89,"SYSBP","Systolic Blood Pressure","SUPINE","131","mmHg","131",131,"mmHg",NA,NA,NA,2,"SCREENING 2",-1,"2013-12-30",-2,"AFTER LYING DOWN FOR 5 MINUTES",815,"PT5M","PATIENT SUPINE"
"CDISCPILOT01","VS","01-701-1097",90,"SYSBP","Systolic Blood Pressure","STANDING","138","mmHg","138",138,"mmHg",NA,NA,NA,2,"SCREENING 2",-1,"2013-12-30",-2,"AFTER STANDING FOR 1 MINUTE",816,"PT1M","PATIENT STANDING"
"CDISCPILOT01","VS","01-701-1097",91,"SYSBP","Systolic Blood Pressure","STANDING","138","mmHg","138",138,"mmHg",NA,NA,NA,2,"SCREENING 2",-1,"2013-12-30",-2,"AFTER STANDING FOR 3 MINUTES",817,"PT3M","PATIENT STANDING"
"CDISCPILOT01","VS","01-701-1097",92,"SYSBP","Systolic Blood Pressure","SUPINE","128","mmHg","128",128,"mmHg",NA,NA,"Y",3,"BASELINE",1,"2014-01-01",1,"AFTER LYING DOWN FOR 5 MINUTES",815,"PT5M","PATIENT SUPINE"
"CDISCPILOT01","VS","01-701-1097",93,"SYSBP","Systolic Blood Pressure","STANDING","130","mmHg","130",130,"mmHg",NA,NA,"Y",3,"BASELINE",1,"2014-01-01",1,"AFTER STANDING FOR 1 MINUTE",816,"PT1M","PATIENT STANDING"
"CDISCPILOT01","VS","01-701-1097",94,"SYSBP","Systolic Blood Pressure","STANDING","132","mmHg","132",132,"mmHg",NA,NA,"Y",3,"BASELINE",1,"2014-01-01",1,"AFTER STANDING FOR 3 MINUTES",817,"PT3M","PATIENT STANDING"
"CDISCPILOT01","VS","01-701-1097",95,"SYSBP","Systolic Blood Pressure","SUPINE","121","mmHg","121",121,"mmHg",NA,NA,NA,3.5,"AMBUL ECG PLACEMENT",13,"2014-01-14",14,"AFTER LYING DOWN FOR 5 MINUTES",815,"PT5M","PATIENT SUPINE"
"CDISCPILOT01","VS","01-701-1097",96,"SYSBP","Systolic Blood Pressure","STANDING","144","mmHg","144",144,"mmHg",NA,NA,NA,3.5,"AMBUL ECG PLACEMENT",13,"2014-01-14",14,"AFTER STANDING FOR 1 MINUTE",816,"PT1M","PATIENT STANDING"
"CDISCPILOT01","VS","01-701-1097",97,"SYSBP","Systolic Blood Pressure","STANDING","130","mmHg","130",130,"mmHg",NA,NA,NA,3.5,"AMBUL ECG PLACEMENT",13,"2014-01-14",14,"AFTER STANDING FOR 3 MINUTES",817,"PT3M","PATIENT STANDING"
"CDISCPILOT01","VS","01-701-1097",98,"SYSBP","Systolic Blood Pressure","SUPINE","124","mmHg","124",124,"mmHg",NA,NA,NA,4,"WEEK 2",14,"2014-01-15",15,"AFTER LYING DOWN FOR 5 MINUTES",815,"PT5M","PATIENT SUPINE"
"CDISCPILOT01","VS","01-701-1097",99,"SYSBP","Systolic Blood Pressure","STANDING","130","mmHg","130",130,"mmHg",NA,NA,NA,4,"WEEK 2",14,"2014-01-15",15,"AFTER STANDING FOR 1 MINUTE",816,"PT1M","PATIENT STANDING"
"CDISCPILOT01","VS","01-701-1097",100,"SYSBP","Systolic Blood Pressure","STANDING","132","mmHg","132",132,"mmHg",NA,NA,NA,4,"WEEK 2",14,"2014-01-15",15,"AFTER STANDING FOR 3 MINUTES",817,"PT3M","PATIENT STANDING"
"CDISCPILOT01","VS","01-701-1097",101,"SYSBP","Systolic Blood Pressure","SUPINE","137","mmHg","137",137,"mmHg",NA,NA,NA,5,"WEEK 4",28,"2014-01-29",29,"AFTER LYING DOWN FOR 5 MINUTES",815,"PT5M","PATIENT SUPINE"
"CDISCPILOT01","VS","01-701-1097",102,"SYSBP","Systolic Blood Pressure","STANDING","134","mmHg","134",134,"mmHg",NA,NA,NA,5,"WEEK 4",28,"2014-01-29",29,"AFTER STANDING FOR 1 MINUTE",816,"PT1M","PATIENT STANDING"
"CDISCPILOT01","VS","01-701-1097",103,"SYSBP","Systolic Blood Pressure","STANDING","137","mmHg","137",137,"mmHg",NA,NA,NA,5,"WEEK 4",28,"2014-01-29",29,"AFTER STANDING FOR 3 MINUTES",817,"PT3M","PATIENT STANDING"
"CDISCPILOT01","VS","01-701-1097",104,"SYSBP","Systolic Blood Pressure","SUPINE","132","mmHg","132",132,"mmHg",NA,NA,NA,6,"AMBUL ECG REMOVAL",30,"2014-02-04",35,"AFTER LYING DOWN FOR 5 MINUTES",815,"PT5M","PATIENT SUPINE"
"CDISCPILOT01","VS","01-701-1097",105,"SYSBP","Systolic Blood Pressure","STANDING","132","mmHg","132",132,"mmHg",NA,NA,NA,6,"AMBUL ECG REMOVAL",30,"2014-02-04",35,"AFTER STANDING FOR 1 MINUTE",816,"PT1M","PATIENT STANDING"
"CDISCPILOT01","VS","01-701-1097",106,"SYSBP","Systolic Blood Pressure","STANDING","138","mmHg","138",138,"mmHg",NA,NA,NA,6,"AMBUL ECG REMOVAL",30,"2014-02-04",35,"AFTER STANDING FOR 3 MINUTES",817,"PT3M","PATIENT STANDING"
"CDISCPILOT01","VS","01-701-1097",107,"SYSBP","Systolic Blood Pressure","SUPINE","122","mmHg","122",122,"mmHg",NA,NA,NA,7,"WEEK 6",42,"2014-02-11",42,"AFTER LYING DOWN FOR 5 MINUTES",815,"PT5M","PATIENT SUPINE"
"CDISCPILOT01","VS","01-701-1097",108,"SYSBP","Systolic Blood Pressure","STANDING","124","mmHg","124",124,"mmHg",NA,NA,NA,7,"WEEK 6",42,"2014-02-11",42,"AFTER STANDING FOR 1 MINUTE",816,"PT1M","PATIENT STANDING"
"CDISCPILOT01","VS","01-701-1097",109,"SYSBP","Systolic Blood Pressure","STANDING","124","mmHg","124",124,"mmHg",NA,NA,NA,7,"WEEK 6",42,"2014-02-11",42,"AFTER STANDING FOR 3 MINUTES",817,"PT3M","PATIENT STANDING"
"CDISCPILOT01","VS","01-701-1097",110,"SYSBP","Systolic Blood Pressure","SUPINE","136","mmHg","136",136,"mmHg",NA,NA,NA,8,"WEEK 8",56,"2014-02-26",57,"AFTER LYING DOWN FOR 5 MINUTES",815,"PT5M","PATIENT SUPINE"
"CDISCPILOT01","VS","01-701-1097",111,"SYSBP","Systolic Blood Pressure","STANDING","130","mmHg","130",130,"mmHg",NA,NA,NA,8,"WEEK 8",56,"2014-02-26",57,"AFTER STANDING FOR 1 MINUTE",816,"PT1M","PATIENT STANDING"
"CDISCPILOT01","VS","01-701-1097",112,"SYSBP","Systolic Blood Pressure","STANDING","131","mmHg","131",131,"mmHg",NA,NA,NA,8,"WEEK 8",56,"2014-02-26",57,"AFTER STANDING FOR 3 MINUTES",817,"PT3M","PATIENT STANDING"
"CDISCPILOT01","VS","01-701-1097",113,"SYSBP","Systolic Blood Pressure","SUPINE","121","mmHg","121",121,"mmHg",NA,NA,NA,9,"WEEK 12",84,"2014-03-26",85,"AFTER LYING DOWN FOR 5 MINUTES",815,"PT5M","PATIENT SUPINE"
"CDISCPILOT01","VS","01-701-1097",114,"SYSBP","Systolic Blood Pressure","STANDING","132","mmHg","132",132,"mmHg",NA,NA,NA,9,"WEEK 12",84,"2014-03-26",85,"AFTER STANDING FOR 1 MINUTE",816,"PT1M","PATIENT STANDING"
"CDISCPILOT01","VS","01-701-1097",115,"SYSBP","Systolic Blood Pressure","STANDING","139","mmHg","139",139,"mmHg",NA,NA,NA,9,"WEEK 12",84,"2014-03-26",85,"AFTER STANDING FOR 3 MINUTES",817,"PT3M","PATIENT STANDING"
"CDISCPILOT01","VS","01-701-1097",116,"SYSBP","Systolic Blood Pressure","SUPINE","132","mmHg","132",132,"mmHg",NA,NA,NA,10,"WEEK 16",112,"2014-04-23",113,"AFTER LYING DOWN FOR 5 MINUTES",815,"PT5M","PATIENT SUPINE"
"CDISCPILOT01","VS","01-701-1097",117,"SYSBP","Systolic Blood Pressure","STANDING","138","mmHg","138",138,"mmHg",NA,NA,NA,10,"WEEK 16",112,"2014-04-23",113,"AFTER STANDING FOR 1 MINUTE",816,"PT1M","PATIENT STANDING"
"CDISCPILOT01","VS","01-701-1097",118,"SYSBP","Systolic Blood Pressure","STANDING","139","mmHg","139",139,"mmHg",NA,NA,NA,10,"WEEK 16",112,"2014-04-23",113,"AFTER STANDING FOR 3 MINUTES",817,"PT3M","PATIENT STANDING"
"CDISCPILOT01","VS","01-701-1097",119,"SYSBP","Systolic Blood Pressure","SUPINE","121","mmHg","121",121,"mmHg",NA,NA,NA,11,"WEEK 20",140,"2014-05-21",141,"AFTER LYING DOWN FOR 5 MINUTES",815,"PT5M","PATIENT SUPINE"
"CDISCPILOT01","VS","01-701-1097",120,"SYSBP","Systolic Blood Pressure","STANDING","112","mmHg","112",112,"mmHg",NA,NA,NA,11,"WEEK 20",140,"2014-05-21",141,"AFTER STANDING FOR 1 MINUTE",816,"PT1M","PATIENT STANDING"
"CDISCPILOT01","VS","01-701-1097",121,"SYSBP","Systolic Blood Pressure","STANDING","115","mmHg","115",115,"mmHg",NA,NA,NA,11,"WEEK 20",140,"2014-05-21",141,"AFTER STANDING FOR 3 MINUTES",817,"PT3M","PATIENT STANDING"
"CDISCPILOT01","VS","01-701-1097",122,"SYSBP","Systolic Blood Pressure","SUPINE","137","mmHg","137",137,"mmHg",NA,NA,NA,12,"WEEK 24",168,"2014-06-18",169,"AFTER LYING DOWN FOR 5 MINUTES",815,"PT5M","PATIENT SUPINE"
"CDISCPILOT01","VS","01-701-1097",123,"SYSBP","Systolic Blood Pressure","STANDING","131","mmHg","131",131,"mmHg",NA,NA,NA,12,"WEEK 24",168,"2014-06-18",169,"AFTER STANDING FOR 1 MINUTE",816,"PT1M","PATIENT STANDING"
"CDISCPILOT01","VS","01-701-1097",124,"SYSBP","Systolic Blood Pressure","STANDING","130","mmHg","130",130,"mmHg",NA,NA,NA,12,"WEEK 24",168,"2014-06-18",169,"AFTER STANDING FOR 3 MINUTES",817,"PT3M","PATIENT STANDING"
"CDISCPILOT01","VS","01-701-1097",125,"SYSBP","Systolic Blood Pressure","SUPINE","123","mmHg","123",123,"mmHg",NA,NA,NA,13,"WEEK 26",182,"2014-07-09",190,"AFTER LYING DOWN FOR 5 MINUTES",815,"PT5M","PATIENT SUPINE"
"CDISCPILOT01","VS","01-701-1097",126,"SYSBP","Systolic Blood Pressure","STANDING","132","mmHg","132",132,"mmHg",NA,NA,NA,13,"WEEK 26",182,"2014-07-09",190,"AFTER STANDING FOR 1 MINUTE",816,"PT1M","PATIENT STANDING"
"CDISCPILOT01","VS","01-701-1097",127,"SYSBP","Systolic Blood Pressure","STANDING","131","mmHg","131",131,"mmHg",NA,NA,NA,13,"WEEK 26",182,"2014-07-09",190,"AFTER STANDING FOR 3 MINUTES",817,"PT3M","PATIENT STANDING"
"CDISCPILOT01","VS","01-701-1097",128,"TEMP","Temperature",NA,"096.4","F","35.78",35.78,"C",NA,"ORAL CAVITY",NA,1,"SCREENING 1",-7,"2013-12-23",-9,NA,NA,NA,NA
"CDISCPILOT01","VS","01-701-1097",129,"TEMP","Temperature",NA,"098.1","F","36.72",36.72,"C",NA,"ORAL CAVITY",NA,2,"SCREENING 2",-1,"2013-12-30",-2,NA,NA,NA,NA
"CDISCPILOT01","VS","01-701-1097",130,"TEMP","Temperature",NA,"097.6","F","36.44",36.44,"C",NA,"ORAL CAVITY","Y",3,"BASELINE",1,"2014-01-01",1,NA,NA,NA,NA
"CDISCPILOT01","VS","01-701-1097",131,"TEMP","Temperature",NA,"097.9","F","36.61",36.61,"C",NA,"ORAL CAVITY",NA,3.5,"AMBUL ECG PLACEMENT",13,"2014-01-14",14,NA,NA,NA,NA
"CDISCPILOT01","VS","01-701-1097",132,"TEMP","Temperature",NA,"097.7","F","36.5",36.5,"C",NA,"ORAL CAVITY",NA,4,"WEEK 2",14,"2014-01-15",15,NA,NA,NA,NA
"CDISCPILOT01","VS","01-701-1097",133,"TEMP","Temperature",NA,"93.7","F","34.28",34.28,"C",NA,"ORAL CAVITY",NA,5,"WEEK 4",28,"2014-01-29",29,NA,NA,NA,NA
"CDISCPILOT01","VS","01-701-1097",134,"TEMP","Temperature",NA,"098.0","F","36.67",36.67,"C",NA,"ORAL CAVITY",NA,6,"AMBUL ECG REMOVAL",30,"2014-02-04",35,NA,NA,NA,NA
"CDISCPILOT01","VS","01-701-1097",135,"TEMP","Temperature",NA,"097.6","F","36.44",36.44,"C",NA,"ORAL CAVITY",NA,7,"WEEK 6",42,"2014-02-11",42,NA,NA,NA,NA
"CDISCPILOT01","VS","01-701-1097",136,"TEMP","Temperature",NA,"98.3","F","36.83",36.83,"C",NA,"ORAL CAVITY",NA,8,"WEEK 8",56,"2014-02-26",57,NA,NA,NA,NA
"CDISCPILOT01","VS","01-701-1097",137,"TEMP","Temperature",NA,"97.5","F","36.39",36.39,"C",NA,"ORAL CAVITY",NA,9,"WEEK 12",84,"2014-03-26",85,NA,NA,NA,NA
"CDISCPILOT01","VS","01-701-1097",138,"TEMP","Temperature",NA,"98.1","F","36.72",36.72,"C",NA,"ORAL CAVITY",NA,10,"WEEK 16",112,"2014-04-23",113,NA,NA,NA,NA
"CDISCPILOT01","VS","01-701-1097",139,"TEMP","Temperature",NA,"97.6","F","36.44",36.44,"C",NA,"ORAL CAVITY",NA,11,"WEEK 20",140,"2014-05-21",141,NA,NA,NA,NA
"CDISCPILOT01","VS","01-701-1097",140,"TEMP","Temperature",NA,"98.6","F","37",37,"C",NA,"ORAL CAVITY",NA,12,"WEEK 24",168,"2014-06-18",169,NA,NA,NA,NA
"CDISCPILOT01","VS","01-701-1097",141,"TEMP","Temperature",NA,"97.8","F","36.56",36.56,"C",NA,"ORAL CAVITY",NA,13,"WEEK 26",182,"2014-07-09",190,NA,NA,NA,NA
"CDISCPILOT01","VS","01-701-1097",142,"WEIGHT","Weight",NA,"172.0","LB","78.02",78.02,"kg",NA,NA,NA,1,"SCREENING 1",-7,"2013-12-23",-9,NA,NA,NA,NA
"CDISCPILOT01","VS","01-701-1097",143,"WEIGHT","Weight",NA,"172.0","LB","78.02",78.02,"kg",NA,NA,"Y",3,"BASELINE",1,"2014-01-01",1,NA,NA,NA,NA
"CDISCPILOT01","VS","01-701-1097",144,"WEIGHT","Weight",NA,"175.0","LB","79.38",79.38,"kg",NA,NA,NA,4,"WEEK 2",14,"2014-01-15",15,NA,NA,NA,NA
"CDISCPILOT01","VS","01-701-1097",145,"WEIGHT","Weight",NA,"175.0","LB","79.38",79.38,"kg",NA,NA,NA,5,"WEEK 4",28,"2014-01-29",29,NA,NA,NA,NA
"CDISCPILOT01","VS","01-701-1097",146,"WEIGHT","Weight",NA,"175.0","LB","79.38",79.38,"kg",NA,NA,NA,7,"WEEK 6",42,"2014-02-11",42,NA,NA,NA,NA
"CDISCPILOT01","VS","01-701-1097",147,"WEIGHT","Weight",NA,"173.0","LB","78.47",78.47,"kg",NA,NA,NA,8,"WEEK 8",56,"2014-02-26",57,NA,NA,NA,NA
"CDISCPILOT01","VS","01-701-1097",148,"WEIGHT","Weight",NA,"176.0","LB","79.83",79.83,"kg",NA,NA,NA,9,"WEEK 12",84,"2014-03-26",85,NA,NA,NA,NA
"CDISCPILOT01","VS","01-701-1097",149,"WEIGHT","Weight",NA,"175.0","LB","79.38",79.38,"kg",NA,NA,NA,10,"WEEK 16",112,"2014-04-23",113,NA,NA,NA,NA
"CDISCPILOT01","VS","01-701-1097",150,"WEIGHT","Weight",NA,"176.0","LB","79.83",79.83,"kg",NA,NA,NA,11,"WEEK 20",140,"2014-05-21",141,NA,NA,NA,NA
"CDISCPILOT01","VS","01-701-1097",151,"WEIGHT","Weight",NA,"177.0","LB","80.29",80.29,"kg",NA,NA,NA,12,"WEEK 24",168,"2014-06-18",169,NA,NA,NA,NA
"CDISCPILOT01","VS","01-701-1097",152,"WEIGHT","Weight",NA,"173.0","LB","78.47",78.47,"kg",NA,NA,NA,13,"WEEK 26",182,"2014-07-09",190,NA,NA,NA,NA
"CDISCPILOT01","VS","01-701-1111",1,"DIABP","Diastolic Blood Pressure","SUPINE","74","mmHg","74",74,"mmHg",NA,NA,NA,1,"SCREENING 1",-7,"2012-08-25",-13,"AFTER LYING DOWN FOR 5 MINUTES",815,"PT5M","PATIENT SUPINE"
"CDISCPILOT01","VS","01-701-1111",2,"DIABP","Diastolic Blood Pressure","STANDING","75","mmHg","75",75,"mmHg",NA,NA,NA,1,"SCREENING 1",-7,"2012-08-25",-13,"AFTER STANDING FOR 1 MINUTE",816,"PT1M","PATIENT STANDING"
"CDISCPILOT01","VS","01-701-1111",3,"DIABP","Diastolic Blood Pressure","STANDING","65","mmHg","65",65,"mmHg",NA,NA,NA,1,"SCREENING 1",-7,"2012-08-25",-13,"AFTER STANDING FOR 3 MINUTES",817,"PT3M","PATIENT STANDING"
"CDISCPILOT01","VS","01-701-1111",4,"DIABP","Diastolic Blood Pressure","SUPINE","63","mmHg","63",63,"mmHg",NA,NA,NA,2,"SCREENING 2",-1,"2012-09-05",-2,"AFTER LYING DOWN FOR 5 MINUTES",815,"PT5M","PATIENT SUPINE"
"CDISCPILOT01","VS","01-701-1111",5,"DIABP","Diastolic Blood Pressure","STANDING","74","mmHg","74",74,"mmHg",NA,NA,NA,2,"SCREENING 2",-1,"2012-09-05",-2,"AFTER STANDING FOR 1 MINUTE",816,"PT1M","PATIENT STANDING"
"CDISCPILOT01","VS","01-701-1111",6,"DIABP","Diastolic Blood Pressure","STANDING","74","mmHg","74",74,"mmHg",NA,NA,NA,2,"SCREENING 2",-1,"2012-09-05",-2,"AFTER STANDING FOR 3 MINUTES",817,"PT3M","PATIENT STANDING"
"CDISCPILOT01","VS","01-701-1111",7,"DIABP","Diastolic Blood Pressure","SUPINE","66","mmHg","66",66,"mmHg",NA,NA,"Y",3,"BASELINE",1,"2012-09-07",1,"AFTER LYING DOWN FOR 5 MINUTES",815,"PT5M","PATIENT SUPINE"
"CDISCPILOT01","VS","01-701-1111",8,"DIABP","Diastolic Blood Pressure","STANDING","78","mmHg","78",78,"mmHg",NA,NA,"Y",3,"BASELINE",1,"2012-09-07",1,"AFTER STANDING FOR 1 MINUTE",816,"PT1M","PATIENT STANDING"
"CDISCPILOT01","VS","01-701-1111",9,"DIABP","Diastolic Blood Pressure","STANDING","71","mmHg","71",71,"mmHg",NA,NA,"Y",3,"BASELINE",1,"2012-09-07",1,"AFTER STANDING FOR 3 MINUTES",817,"PT3M","PATIENT STANDING"
"CDISCPILOT01","VS","01-701-1111",10,"DIABP","Diastolic Blood Pressure","SUPINE","60","mmHg","60",60,"mmHg",NA,NA,NA,4,"WEEK 2",14,"2012-09-17",11,"AFTER LYING DOWN FOR 5 MINUTES",815,"PT5M","PATIENT SUPINE"
"CDISCPILOT01","VS","01-701-1111",11,"DIABP","Diastolic Blood Pressure","STANDING","66","mmHg","66",66,"mmHg",NA,NA,NA,4,"WEEK 2",14,"2012-09-17",11,"AFTER STANDING FOR 1 MINUTE",816,"PT1M","PATIENT STANDING"
"CDISCPILOT01","VS","01-701-1111",12,"DIABP","Diastolic Blood Pressure","STANDING","60","mmHg","60",60,"mmHg",NA,NA,NA,4,"WEEK 2",14,"2012-09-17",11,"AFTER STANDING FOR 3 MINUTES",817,"PT3M","PATIENT STANDING"
"CDISCPILOT01","VS","01-701-1111",13,"DIABP","Diastolic Blood Pressure","SUPINE","64","mmHg","64",64,"mmHg",NA,NA,NA,201,"RETRIEVAL",168,"2013-02-22",169,"AFTER LYING DOWN FOR 5 MINUTES",815,"PT5M","PATIENT SUPINE"
"CDISCPILOT01","VS","01-701-1111",14,"DIABP","Diastolic Blood Pressure","STANDING","72","mmHg","72",72,"mmHg",NA,NA,NA,201,"RETRIEVAL",168,"2013-02-22",169,"AFTER STANDING FOR 1 MINUTE",816,"PT1M","PATIENT STANDING"
"CDISCPILOT01","VS","01-701-1111",15,"DIABP","Diastolic Blood Pressure","STANDING","64","mmHg","64",64,"mmHg",NA,NA,NA,201,"RETRIEVAL",168,"2013-02-22",169,"AFTER STANDING FOR 3 MINUTES",817,"PT3M","PATIENT STANDING"
"CDISCPILOT01","VS","01-701-1111",16,"HEIGHT","Height",NA,"062.3","IN","158.24",158.24,"cm",NA,NA,NA,1,"SCREENING 1",-7,"2012-08-25",-13,NA,NA,NA,NA
"CDISCPILOT01","VS","01-701-1111",17,"PULSE","Pulse Rate","SUPINE","80","BEATS/MIN","80",80,"BEATS/MIN",NA,NA,NA,1,"SCREENING 1",-7,"2012-08-25",-13,"AFTER LYING DOWN FOR 5 MINUTES",815,"PT5M","PATIENT SUPINE"
"CDISCPILOT01","VS","01-701-1111",18,"PULSE","Pulse Rate","STANDING","85","BEATS/MIN","85",85,"BEATS/MIN",NA,NA,NA,1,"SCREENING 1",-7,"2012-08-25",-13,"AFTER STANDING FOR 1 MINUTE",816,"PT1M","PATIENT STANDING"
"CDISCPILOT01","VS","01-701-1111",19,"PULSE","Pulse Rate","STANDING","84","BEATS/MIN","84",84,"BEATS/MIN",NA,NA,NA,1,"SCREENING 1",-7,"2012-08-25",-13,"AFTER STANDING FOR 3 MINUTES",817,"PT3M","PATIENT STANDING"
"CDISCPILOT01","VS","01-701-1111",20,"PULSE","Pulse Rate","SUPINE","84","BEATS/MIN","84",84,"BEATS/MIN",NA,NA,NA,2,"SCREENING 2",-1,"2012-09-05",-2,"AFTER LYING DOWN FOR 5 MINUTES",815,"PT5M","PATIENT SUPINE"
"CDISCPILOT01","VS","01-701-1111",21,"PULSE","Pulse Rate","STANDING","94","BEATS/MIN","94",94,"BEATS/MIN",NA,NA,NA,2,"SCREENING 2",-1,"2012-09-05",-2,"AFTER STANDING FOR 1 MINUTE",816,"PT1M","PATIENT STANDING"
"CDISCPILOT01","VS","01-701-1111",22,"PULSE","Pulse Rate","STANDING","89","BEATS/MIN","89",89,"BEATS/MIN",NA,NA,NA,2,"SCREENING 2",-1,"2012-09-05",-2,"AFTER STANDING FOR 3 MINUTES",817,"PT3M","PATIENT STANDING"
"CDISCPILOT01","VS","01-701-1111",23,"PULSE","Pulse Rate","SUPINE","78","BEATS/MIN","78",78,"BEATS/MIN",NA,NA,"Y",3,"BASELINE",1,"2012-09-07",1,"AFTER LYING DOWN FOR 5 MINUTES",815,"PT5M","PATIENT SUPINE"
"CDISCPILOT01","VS","01-701-1111",24,"PULSE","Pulse Rate","STANDING","85","BEATS/MIN","85",85,"BEATS/MIN",NA,NA,"Y",3,"BASELINE",1,"2012-09-07",1,"AFTER STANDING FOR 1 MINUTE",816,"PT1M","PATIENT STANDING"
"CDISCPILOT01","VS","01-701-1111",25,"PULSE","Pulse Rate","STANDING","85","BEATS/MIN","85",85,"BEATS/MIN",NA,NA,"Y",3,"BASELINE",1,"2012-09-07",1,"AFTER STANDING FOR 3 MINUTES",817,"PT3M","PATIENT STANDING"
"CDISCPILOT01","VS","01-701-1111",26,"PULSE","Pulse Rate","SUPINE","85","BEATS/MIN","85",85,"BEATS/MIN",NA,NA,NA,4,"WEEK 2",14,"2012-09-17",11,"AFTER LYING DOWN FOR 5 MINUTES",815,"PT5M","PATIENT SUPINE"
"CDISCPILOT01","VS","01-701-1111",27,"PULSE","Pulse Rate","STANDING","89","BEATS/MIN","89",89,"BEATS/MIN",NA,NA,NA,4,"WEEK 2",14,"2012-09-17",11,"AFTER STANDING FOR 1 MINUTE",816,"PT1M","PATIENT STANDING"
"CDISCPILOT01","VS","01-701-1111",28,"PULSE","Pulse Rate","STANDING","84","BEATS/MIN","84",84,"BEATS/MIN",NA,NA,NA,4,"WEEK 2",14,"2012-09-17",11,"AFTER STANDING FOR 3 MINUTES",817,"PT3M","PATIENT STANDING"
"CDISCPILOT01","VS","01-701-1111",29,"PULSE","Pulse Rate","SUPINE","66","BEATS/MIN","66",66,"BEATS/MIN",NA,NA,NA,201,"RETRIEVAL",168,"2013-02-22",169,"AFTER LYING DOWN FOR 5 MINUTES",815,"PT5M","PATIENT SUPINE"
"CDISCPILOT01","VS","01-701-1111",30,"PULSE","Pulse Rate","STANDING","79","BEATS/MIN","79",79,"BEATS/MIN",NA,NA,NA,201,"RETRIEVAL",168,"2013-02-22",169,"AFTER STANDING FOR 1 MINUTE",816,"PT1M","PATIENT STANDING"
"CDISCPILOT01","VS","01-701-1111",31,"PULSE","Pulse Rate","STANDING","74","BEATS/MIN","74",74,"BEATS/MIN",NA,NA,NA,201,"RETRIEVAL",168,"2013-02-22",169,"AFTER STANDING FOR 3 MINUTES",817,"PT3M","PATIENT STANDING"
"CDISCPILOT01","VS","01-701-1111",32,"SYSBP","Systolic Blood Pressure","SUPINE","137","mmHg","137",137,"mmHg",NA,NA,NA,1,"SCREENING 1",-7,"2012-08-25",-13,"AFTER LYING DOWN FOR 5 MINUTES",815,"PT5M","PATIENT SUPINE"
"CDISCPILOT01","VS","01-701-1111",33,"SYSBP","Systolic Blood Pressure","STANDING","129","mmHg","129",129,"mmHg",NA,NA,NA,1,"SCREENING 1",-7,"2012-08-25",-13,"AFTER STANDING FOR 1 MINUTE",816,"PT1M","PATIENT STANDING"
"CDISCPILOT01","VS","01-701-1111",34,"SYSBP","Systolic Blood Pressure","STANDING","122","mmHg","122",122,"mmHg",NA,NA,NA,1,"SCREENING 1",-7,"2012-08-25",-13,"AFTER STANDING FOR 3 MINUTES",817,"PT3M","PATIENT STANDING"
"CDISCPILOT01","VS","01-701-1111",35,"SYSBP","Systolic Blood Pressure","SUPINE","137","mmHg","137",137,"mmHg",NA,NA,NA,2,"SCREENING 2",-1,"2012-09-05",-2,"AFTER LYING DOWN FOR 5 MINUTES",815,"PT5M","PATIENT SUPINE"
"CDISCPILOT01","VS","01-701-1111",36,"SYSBP","Systolic Blood Pressure","STANDING","121","mmHg","121",121,"mmHg",NA,NA,NA,2,"SCREENING 2",-1,"2012-09-05",-2,"AFTER STANDING FOR 1 MINUTE",816,"PT1M","PATIENT STANDING"
"CDISCPILOT01","VS","01-701-1111",37,"SYSBP","Systolic Blood Pressure","STANDING","129","mmHg","129",129,"mmHg",NA,NA,NA,2,"SCREENING 2",-1,"2012-09-05",-2,"AFTER STANDING FOR 3 MINUTES",817,"PT3M","PATIENT STANDING"
"CDISCPILOT01","VS","01-701-1111",38,"SYSBP","Systolic Blood Pressure","SUPINE","129","mmHg","129",129,"mmHg",NA,NA,"Y",3,"BASELINE",1,"2012-09-07",1,"AFTER LYING DOWN FOR 5 MINUTES",815,"PT5M","PATIENT SUPINE"
"CDISCPILOT01","VS","01-701-1111",39,"SYSBP","Systolic Blood Pressure","STANDING","136","mmHg","136",136,"mmHg",NA,NA,"Y",3,"BASELINE",1,"2012-09-07",1,"AFTER STANDING FOR 1 MINUTE",816,"PT1M","PATIENT STANDING"
"CDISCPILOT01","VS","01-701-1111",40,"SYSBP","Systolic Blood Pressure","STANDING","135","mmHg","135",135,"mmHg",NA,NA,"Y",3,"BASELINE",1,"2012-09-07",1,"AFTER STANDING FOR 3 MINUTES",817,"PT3M","PATIENT STANDING"
"CDISCPILOT01","VS","01-701-1111",41,"SYSBP","Systolic Blood Pressure","SUPINE","125","mmHg","125",125,"mmHg",NA,NA,NA,4,"WEEK 2",14,"2012-09-17",11,"AFTER LYING DOWN FOR 5 MINUTES",815,"PT5M","PATIENT SUPINE"
"CDISCPILOT01","VS","01-701-1111",42,"SYSBP","Systolic Blood Pressure","STANDING","112","mmHg","112",112,"mmHg",NA,NA,NA,4,"WEEK 2",14,"2012-09-17",11,"AFTER STANDING FOR 1 MINUTE",816,"PT1M","PATIENT STANDING"
"CDISCPILOT01","VS","01-701-1111",43,"SYSBP","Systolic Blood Pressure","STANDING","110","mmHg","110",110,"mmHg",NA,NA,NA,4,"WEEK 2",14,"2012-09-17",11,"AFTER STANDING FOR 3 MINUTES",817,"PT3M","PATIENT STANDING"
"CDISCPILOT01","VS","01-701-1111",44,"SYSBP","Systolic Blood Pressure","SUPINE","138","mmHg","138",138,"mmHg",NA,NA,NA,201,"RETRIEVAL",168,"2013-02-22",169,"AFTER LYING DOWN FOR 5 MINUTES",815,"PT5M","PATIENT SUPINE"
"CDISCPILOT01","VS","01-701-1111",45,"SYSBP","Systolic Blood Pressure","STANDING","130","mmHg","130",130,"mmHg",NA,NA,NA,201,"RETRIEVAL",168,"2013-02-22",169,"AFTER STANDING FOR 1 MINUTE",816,"PT1M","PATIENT STANDING"
"CDISCPILOT01","VS","01-701-1111",46,"SYSBP","Systolic Blood Pressure","STANDING","130","mmHg","130",130,"mmHg",NA,NA,NA,201,"RETRIEVAL",168,"2013-02-22",169,"AFTER STANDING FOR 3 MINUTES",817,"PT3M","PATIENT STANDING"
"CDISCPILOT01","VS","01-701-1111",47,"TEMP","Temperature",NA,"98.6","F","37",37,"C",NA,"ORAL CAVITY",NA,1,"SCREENING 1",-7,"2012-08-25",-13,NA,NA,NA,NA
"CDISCPILOT01","VS","01-701-1111",48,"TEMP","Temperature",NA,"97.9","F","36.61",36.61,"C",NA,"ORAL CAVITY",NA,2,"SCREENING 2",-1,"2012-09-05",-2,NA,NA,NA,NA
"CDISCPILOT01","VS","01-701-1111",49,"TEMP","Temperature",NA,"98.1","F","36.72",36.72,"C",NA,"ORAL CAVITY","Y",3,"BASELINE",1,"2012-09-07",1,NA,NA,NA,NA
"CDISCPILOT01","VS","01-701-1111",50,"TEMP","Temperature",NA,"098.8","F","37.11",37.11,"C",NA,"ORAL CAVITY",NA,4,"WEEK 2",14,"2012-09-17",11,NA,NA,NA,NA
"CDISCPILOT01","VS","01-701-1111",51,"TEMP","Temperature",NA,"97.7","F","36.5",36.5,"C",NA,"ORAL CAVITY",NA,201,"RETRIEVAL",168,"2013-02-22",169,NA,NA,NA,NA
"CDISCPILOT01","VS","01-701-1111",52,"WEIGHT","Weight",NA,"133.0","LB","60.33",60.33,"kg",NA,NA,NA,1,"SCREENING 1",-7,"2012-08-25",-13,NA,NA,NA,NA
"CDISCPILOT01","VS","01-701-1111",53,"WEIGHT","Weight",NA,"132.0","LB","59.88",59.88,"kg",NA,NA,"Y",3,"BASELINE",1,"2012-09-07",1,NA,NA,NA,NA
"CDISCPILOT01","VS","01-701-1111",54,"WEIGHT","Weight",NA,"134.0","LB","60.78",60.78,"kg",NA,NA,NA,4,"WEEK 2",14,"2012-09-17",11,NA,NA,NA,NA
"CDISCPILOT01","VS","01-701-1115",1,"DIABP","Diastolic Blood Pressure","SUPINE","71","mmHg","71",71,"mmHg",NA,NA,NA,1,"SCREENING 1",-7,"2012-11-23",-7,"AFTER LYING DOWN FOR 5 MINUTES",815,"PT5M","PATIENT SUPINE"
"CDISCPILOT01","VS","01-701-1115",2,"DIABP","Diastolic Blood Pressure","STANDING","68","mmHg","68",68,"mmHg",NA,NA,NA,1,"SCREENING 1",-7,"2012-11-23",-7,"AFTER STANDING FOR 1 MINUTE",816,"PT1M","PATIENT STANDING"
"CDISCPILOT01","VS","01-701-1115",3,"DIABP","Diastolic Blood Pressure","STANDING","69","mmHg","69",69,"mmHg",NA,NA,NA,1,"SCREENING 1",-7,"2012-11-23",-7,"AFTER STANDING FOR 3 MINUTES",817,"PT3M","PATIENT STANDING"
"CDISCPILOT01","VS","01-701-1115",4,"DIABP","Diastolic Blood Pressure","SUPINE","71","mmHg","71",71,"mmHg",NA,NA,NA,2,"SCREENING 2",-1,"2012-11-28",-2,"AFTER LYING DOWN FOR 5 MINUTES",815,"PT5M","PATIENT SUPINE"
"CDISCPILOT01","VS","01-701-1115",5,"DIABP","Diastolic Blood Pressure","STANDING","65","mmHg","65",65,"mmHg",NA,NA,NA,2,"SCREENING 2",-1,"2012-11-28",-2,"AFTER STANDING FOR 1 MINUTE",816,"PT1M","PATIENT STANDING"
"CDISCPILOT01","VS","01-701-1115",6,"DIABP","Diastolic Blood Pressure","STANDING","68","mmHg","68",68,"mmHg",NA,NA,NA,2,"SCREENING 2",-1,"2012-11-28",-2,"AFTER STANDING FOR 3 MINUTES",817,"PT3M","PATIENT STANDING"
"CDISCPILOT01","VS","01-701-1115",7,"DIABP","Diastolic Blood Pressure","SUPINE","83","mmHg","83",83,"mmHg",NA,NA,"Y",3,"BASELINE",1,"2012-11-30",1,"AFTER LYING DOWN FOR 5 MINUTES",815,"PT5M","PATIENT SUPINE"
"CDISCPILOT01","VS","01-701-1115",8,"DIABP","Diastolic Blood Pressure","STANDING","67","mmHg","67",67,"mmHg",NA,NA,"Y",3,"BASELINE",1,"2012-11-30",1,"AFTER STANDING FOR 1 MINUTE",816,"PT1M","PATIENT STANDING"
"CDISCPILOT01","VS","01-701-1115",9,"DIABP","Diastolic Blood Pressure","STANDING","69","mmHg","69",69,"mmHg",NA,NA,"Y",3,"BASELINE",1,"2012-11-30",1,"AFTER STANDING FOR 3 MINUTES",817,"PT3M","PATIENT STANDING"
"CDISCPILOT01","VS","01-701-1115",10,"DIABP","Diastolic Blood Pressure","SUPINE","78","mmHg","78",78,"mmHg",NA,NA,NA,3.5,"AMBUL ECG PLACEMENT",13,"2012-12-12",13,"AFTER LYING DOWN FOR 5 MINUTES",815,"PT5M","PATIENT SUPINE"
"CDISCPILOT01","VS","01-701-1115",11,"DIABP","Diastolic Blood Pressure","STANDING","70","mmHg","70",70,"mmHg",NA,NA,NA,3.5,"AMBUL ECG PLACEMENT",13,"2012-12-12",13,"AFTER STANDING FOR 1 MINUTE",816,"PT1M","PATIENT STANDING"
"CDISCPILOT01","VS","01-701-1115",12,"DIABP","Diastolic Blood Pressure","STANDING","72","mmHg","72",72,"mmHg",NA,NA,NA,3.5,"AMBUL ECG PLACEMENT",13,"2012-12-12",13,"AFTER STANDING FOR 3 MINUTES",817,"PT3M","PATIENT STANDING"
"CDISCPILOT01","VS","01-701-1115",13,"DIABP","Diastolic Blood Pressure","SUPINE","79","mmHg","79",79,"mmHg",NA,NA,NA,4,"WEEK 2",14,"2012-12-13",14,"AFTER LYING DOWN FOR 5 MINUTES",815,"PT5M","PATIENT SUPINE"
"CDISCPILOT01","VS","01-701-1115",14,"DIABP","Diastolic Blood Pressure","STANDING","68","mmHg","68",68,"mmHg",NA,NA,NA,4,"WEEK 2",14,"2012-12-13",14,"AFTER STANDING FOR 1 MINUTE",816,"PT1M","PATIENT STANDING"
"CDISCPILOT01","VS","01-701-1115",15,"DIABP","Diastolic Blood Pressure","STANDING","69","mmHg","69",69,"mmHg",NA,NA,NA,4,"WEEK 2",14,"2012-12-13",14,"AFTER STANDING FOR 3 MINUTES",817,"PT3M","PATIENT STANDING"
"CDISCPILOT01","VS","01-701-1115",16,"DIABP","Diastolic Blood Pressure","SUPINE","68","mmHg","68",68,"mmHg",NA,NA,NA,5,"WEEK 4",28,"2012-12-26",27,"AFTER LYING DOWN FOR 5 MINUTES",815,"PT5M","PATIENT SUPINE"
"CDISCPILOT01","VS","01-701-1115",17,"DIABP","Diastolic Blood Pressure","STANDING","53","mmHg","53",53,"mmHg",NA,NA,NA,5,"WEEK 4",28,"2012-12-26",27,"AFTER STANDING FOR 1 MINUTE",816,"PT1M","PATIENT STANDING"
"CDISCPILOT01","VS","01-701-1115",18,"DIABP","Diastolic Blood Pressure","STANDING","56","mmHg","56",56,"mmHg",NA,NA,NA,5,"WEEK 4",28,"2012-12-26",27,"AFTER STANDING FOR 3 MINUTES",817,"PT3M","PATIENT STANDING"
"CDISCPILOT01","VS","01-701-1115",19,"DIABP","Diastolic Blood Pressure","SUPINE","69","mmHg","69",69,"mmHg",NA,NA,NA,6,"AMBUL ECG REMOVAL",30,"2012-12-28",29,"AFTER LYING DOWN FOR 5 MINUTES",815,"PT5M","PATIENT SUPINE"
"CDISCPILOT01","VS","01-701-1115",20,"DIABP","Diastolic Blood Pressure","STANDING","61","mmHg","61",61,"mmHg",NA,NA,NA,6,"AMBUL ECG REMOVAL",30,"2012-12-28",29,"AFTER STANDING FOR 1 MINUTE",816,"PT1M","PATIENT STANDING"
"CDISCPILOT01","VS","01-701-1115",21,"DIABP","Diastolic Blood Pressure","STANDING","50","mmHg","50",50,"mmHg",NA,NA,NA,6,"AMBUL ECG REMOVAL",30,"2012-12-28",29,"AFTER STANDING FOR 3 MINUTES",817,"PT3M","PATIENT STANDING"
"CDISCPILOT01","VS","01-701-1115",22,"DIABP","Diastolic Blood Pressure","SUPINE","77","mmHg","77",77,"mmHg",NA,NA,NA,7,"WEEK 6",42,"2013-01-10",42,"AFTER LYING DOWN FOR 5 MINUTES",815,"PT5M","PATIENT SUPINE"
"CDISCPILOT01","VS","01-701-1115",23,"DIABP","Diastolic Blood Pressure","STANDING","71","mmHg","71",71,"mmHg",NA,NA,NA,7,"WEEK 6",42,"2013-01-10",42,"AFTER STANDING FOR 1 MINUTE",816,"PT1M","PATIENT STANDING"
"CDISCPILOT01","VS","01-701-1115",24,"DIABP","Diastolic Blood Pressure","STANDING","69","mmHg","69",69,"mmHg",NA,NA,NA,7,"WEEK 6",42,"2013-01-10",42,"AFTER STANDING FOR 3 MINUTES",817,"PT3M","PATIENT STANDING"
"CDISCPILOT01","VS","01-701-1115",25,"DIABP","Diastolic Blood Pressure","SUPINE","76","mmHg","76",76,"mmHg",NA,NA,NA,8,"WEEK 8",56,"2013-01-23",55,"AFTER LYING DOWN FOR 5 MINUTES",815,"PT5M","PATIENT SUPINE"
"CDISCPILOT01","VS","01-701-1115",26,"DIABP","Diastolic Blood Pressure","STANDING","52","mmHg","52",52,"mmHg",NA,NA,NA,8,"WEEK 8",56,"2013-01-23",55,"AFTER STANDING FOR 1 MINUTE",816,"PT1M","PATIENT STANDING"
"CDISCPILOT01","VS","01-701-1115",27,"DIABP","Diastolic Blood Pressure","STANDING","60","mmHg","60",60,"mmHg",NA,NA,NA,8,"WEEK 8",56,"2013-01-23",55,"AFTER STANDING FOR 3 MINUTES",817,"PT3M","PATIENT STANDING"
"CDISCPILOT01","VS","01-701-1115",28,"DIABP","Diastolic Blood Pressure","SUPINE","68","mmHg","68",68,"mmHg",NA,NA,NA,201,"RETRIEVAL",168,"2013-05-20",172,"AFTER LYING DOWN FOR 5 MINUTES",815,"PT5M","PATIENT SUPINE"
"CDISCPILOT01","VS","01-701-1115",29,"DIABP","Diastolic Blood Pressure","STANDING","72","mmHg","72",72,"mmHg",NA,NA,NA,201,"RETRIEVAL",168,"2013-05-20",172,"AFTER STANDING FOR 1 MINUTE",816,"PT1M","PATIENT STANDING"
"CDISCPILOT01","VS","01-701-1115",30,"DIABP","Diastolic Blood Pressure","STANDING","68","mmHg","68",68,"mmHg",NA,NA,NA,201,"RETRIEVAL",168,"2013-05-20",172,"AFTER STANDING FOR 3 MINUTES",817,"PT3M","PATIENT STANDING"
"CDISCPILOT01","VS","01-701-1115",31,"HEIGHT","Height",NA,"71.5","IN","181.61",181.61,"cm",NA,NA,NA,1,"SCREENING 1",-7,"2012-11-23",-7,NA,NA,NA,NA
"CDISCPILOT01","VS","01-701-1115",32,"PULSE","Pulse Rate","SUPINE","51","BEATS/MIN","51",51,"BEATS/MIN",NA,NA,NA,1,"SCREENING 1",-7,"2012-11-23",-7,"AFTER LYING DOWN FOR 5 MINUTES",815,"PT5M","PATIENT SUPINE"
"CDISCPILOT01","VS","01-701-1115",33,"PULSE","Pulse Rate","STANDING","63","BEATS/MIN","63",63,"BEATS/MIN",NA,NA,NA,1,"SCREENING 1",-7,"2012-11-23",-7,"AFTER STANDING FOR 1 MINUTE",816,"PT1M","PATIENT STANDING"
"CDISCPILOT01","VS","01-701-1115",34,"PULSE","Pulse Rate","STANDING","61","BEATS/MIN","61",61,"BEATS/MIN",NA,NA,NA,1,"SCREENING 1",-7,"2012-11-23",-7,"AFTER STANDING FOR 3 MINUTES",817,"PT3M","PATIENT STANDING"
"CDISCPILOT01","VS","01-701-1115",35,"PULSE","Pulse Rate","SUPINE","50","BEATS/MIN","50",50,"BEATS/MIN",NA,NA,NA,2,"SCREENING 2",-1,"2012-11-28",-2,"AFTER LYING DOWN FOR 5 MINUTES",815,"PT5M","PATIENT SUPINE"
"CDISCPILOT01","VS","01-701-1115",36,"PULSE","Pulse Rate","STANDING","58","BEATS/MIN","58",58,"BEATS/MIN",NA,NA,NA,2,"SCREENING 2",-1,"2012-11-28",-2,"AFTER STANDING FOR 1 MINUTE",816,"PT1M","PATIENT STANDING"
"CDISCPILOT01","VS","01-701-1115",37,"PULSE","Pulse Rate","STANDING","59","BEATS/MIN","59",59,"BEATS/MIN",NA,NA,NA,2,"SCREENING 2",-1,"2012-11-28",-2,"AFTER STANDING FOR 3 MINUTES",817,"PT3M","PATIENT STANDING"
"CDISCPILOT01","VS","01-701-1115",38,"PULSE","Pulse Rate","SUPINE","50","BEATS/MIN","50",50,"BEATS/MIN",NA,NA,"Y",3,"BASELINE",1,"2012-11-30",1,"AFTER LYING DOWN FOR 5 MINUTES",815,"PT5M","PATIENT SUPINE"
"CDISCPILOT01","VS","01-701-1115",39,"PULSE","Pulse Rate","STANDING","62","BEATS/MIN","62",62,"BEATS/MIN",NA,NA,"Y",3,"BASELINE",1,"2012-11-30",1,"AFTER STANDING FOR 1 MINUTE",816,"PT1M","PATIENT STANDING"
"CDISCPILOT01","VS","01-701-1115",40,"PULSE","Pulse Rate","STANDING","60","BEATS/MIN","60",60,"BEATS/MIN",NA,NA,"Y",3,"BASELINE",1,"2012-11-30",1,"AFTER STANDING FOR 3 MINUTES",817,"PT3M","PATIENT STANDING"
"CDISCPILOT01","VS","01-701-1115",41,"PULSE","Pulse Rate","SUPINE","52","BEATS/MIN","52",52,"BEATS/MIN",NA,NA,NA,3.5,"AMBUL ECG PLACEMENT",13,"2012-12-12",13,"AFTER LYING DOWN FOR 5 MINUTES",815,"PT5M","PATIENT SUPINE"
"CDISCPILOT01","VS","01-701-1115",42,"PULSE","Pulse Rate","STANDING","64","BEATS/MIN","64",64,"BEATS/MIN",NA,NA,NA,3.5,"AMBUL ECG PLACEMENT",13,"2012-12-12",13,"AFTER STANDING FOR 1 MINUTE",816,"PT1M","PATIENT STANDING"
"CDISCPILOT01","VS","01-701-1115",43,"PULSE","Pulse Rate","STANDING","65","BEATS/MIN","65",65,"BEATS/MIN",NA,NA,NA,3.5,"AMBUL ECG PLACEMENT",13,"2012-12-12",13,"AFTER STANDING FOR 3 MINUTES",817,"PT3M","PATIENT STANDING"
"CDISCPILOT01","VS","01-701-1115",44,"PULSE","Pulse Rate","SUPINE","53","BEATS/MIN","53",53,"BEATS/MIN",NA,NA,NA,4,"WEEK 2",14,"2012-12-13",14,"AFTER LYING DOWN FOR 5 MINUTES",815,"PT5M","PATIENT SUPINE"
"CDISCPILOT01","VS","01-701-1115",45,"PULSE","Pulse Rate","STANDING","70","BEATS/MIN","70",70,"BEATS/MIN",NA,NA,NA,4,"WEEK 2",14,"2012-12-13",14,"AFTER STANDING FOR 1 MINUTE",816,"PT1M","PATIENT STANDING"
"CDISCPILOT01","VS","01-701-1115",46,"PULSE","Pulse Rate","STANDING","65","BEATS/MIN","65",65,"BEATS/MIN",NA,NA,NA,4,"WEEK 2",14,"2012-12-13",14,"AFTER STANDING FOR 3 MINUTES",817,"PT3M","PATIENT STANDING"
"CDISCPILOT01","VS","01-701-1115",47,"PULSE","Pulse Rate","SUPINE","51","BEATS/MIN","51",51,"BEATS/MIN",NA,NA,NA,5,"WEEK 4",28,"2012-12-26",27,"AFTER LYING DOWN FOR 5 MINUTES",815,"PT5M","PATIENT SUPINE"
"CDISCPILOT01","VS","01-701-1115",48,"PULSE","Pulse Rate","STANDING","57","BEATS/MIN","57",57,"BEATS/MIN",NA,NA,NA,5,"WEEK 4",28,"2012-12-26",27,"AFTER STANDING FOR 1 MINUTE",816,"PT1M","PATIENT STANDING"
"CDISCPILOT01","VS","01-701-1115",49,"PULSE","Pulse Rate","STANDING","64","BEATS/MIN","64",64,"BEATS/MIN",NA,NA,NA,5,"WEEK 4",28,"2012-12-26",27,"AFTER STANDING FOR 3 MINUTES",817,"PT3M","PATIENT STANDING"
"CDISCPILOT01","VS","01-701-1115",50,"PULSE","Pulse Rate","SUPINE","50","BEATS/MIN","50",50,"BEATS/MIN",NA,NA,NA,6,"AMBUL ECG REMOVAL",30,"2012-12-28",29,"AFTER LYING DOWN FOR 5 MINUTES",815,"PT5M","PATIENT SUPINE"
"CDISCPILOT01","VS","01-701-1115",51,"PULSE","Pulse Rate","STANDING","63","BEATS/MIN","63",63,"BEATS/MIN",NA,NA,NA,6,"AMBUL ECG REMOVAL",30,"2012-12-28",29,"AFTER STANDING FOR 1 MINUTE",816,"PT1M","PATIENT STANDING"
"CDISCPILOT01","VS","01-701-1115",52,"PULSE","Pulse Rate","STANDING","60","BEATS/MIN","60",60,"BEATS/MIN",NA,NA,NA,6,"AMBUL ECG REMOVAL",30,"2012-12-28",29,"AFTER STANDING FOR 3 MINUTES",817,"PT3M","PATIENT STANDING"
"CDISCPILOT01","VS","01-701-1115",53,"PULSE","Pulse Rate","SUPINE","52","BEATS/MIN","52",52,"BEATS/MIN",NA,NA,NA,7,"WEEK 6",42,"2013-01-10",42,"AFTER LYING DOWN FOR 5 MINUTES",815,"PT5M","PATIENT SUPINE"
"CDISCPILOT01","VS","01-701-1115",54,"PULSE","Pulse Rate","STANDING","62","BEATS/MIN","62",62,"BEATS/MIN",NA,NA,NA,7,"WEEK 6",42,"2013-01-10",42,"AFTER STANDING FOR 1 MINUTE",816,"PT1M","PATIENT STANDING"
"CDISCPILOT01","VS","01-701-1115",55,"PULSE","Pulse Rate","STANDING","62","BEATS/MIN","62",62,"BEATS/MIN",NA,NA,NA,7,"WEEK 6",42,"2013-01-10",42,"AFTER STANDING FOR 3 MINUTES",817,"PT3M","PATIENT STANDING"
"CDISCPILOT01","VS","01-701-1115",56,"PULSE","Pulse Rate","SUPINE","50","BEATS/MIN","50",50,"BEATS/MIN",NA,NA,NA,8,"WEEK 8",56,"2013-01-23",55,"AFTER LYING DOWN FOR 5 MINUTES",815,"PT5M","PATIENT SUPINE"
"CDISCPILOT01","VS","01-701-1115",57,"PULSE","Pulse Rate","STANDING","52","BEATS/MIN","52",52,"BEATS/MIN",NA,NA,NA,8,"WEEK 8",56,"2013-01-23",55,"AFTER STANDING FOR 1 MINUTE",816,"PT1M","PATIENT STANDING"
"CDISCPILOT01","VS","01-701-1115",58,"PULSE","Pulse Rate","STANDING","54","BEATS/MIN","54",54,"BEATS/MIN",NA,NA,NA,8,"WEEK 8",56,"2013-01-23",55,"AFTER STANDING FOR 3 MINUTES",817,"PT3M","PATIENT STANDING"
"CDISCPILOT01","VS","01-701-1115",59,"PULSE","Pulse Rate","SUPINE","79","BEATS/MIN","79",79,"BEATS/MIN",NA,NA,NA,201,"RETRIEVAL",168,"2013-05-20",172,"AFTER LYING DOWN FOR 5 MINUTES",815,"PT5M","PATIENT SUPINE"
"CDISCPILOT01","VS","01-701-1115",60,"PULSE","Pulse Rate","STANDING","98","BEATS/MIN","98",98,"BEATS/MIN",NA,NA,NA,201,"RETRIEVAL",168,"2013-05-20",172,"AFTER STANDING FOR 1 MINUTE",816,"PT1M","PATIENT STANDING"
"CDISCPILOT01","VS","01-701-1115",61,"PULSE","Pulse Rate","STANDING","94","BEATS/MIN","94",94,"BEATS/MIN",NA,NA,NA,201,"RETRIEVAL",168,"2013-05-20",172,"AFTER STANDING FOR 3 MINUTES",817,"PT3M","PATIENT STANDING"
"CDISCPILOT01","VS","01-701-1115",62,"SYSBP","Systolic Blood Pressure","SUPINE","137","mmHg","137",137,"mmHg",NA,NA,NA,1,"SCREENING 1",-7,"2012-11-23",-7,"AFTER LYING DOWN FOR 5 MINUTES",815,"PT5M","PATIENT SUPINE"
"CDISCPILOT01","VS","01-701-1115",63,"SYSBP","Systolic Blood Pressure","STANDING","130","mmHg","130",130,"mmHg",NA,NA,NA,1,"SCREENING 1",-7,"2012-11-23",-7,"AFTER STANDING FOR 1 MINUTE",816,"PT1M","PATIENT STANDING"
"CDISCPILOT01","VS","01-701-1115",64,"SYSBP","Systolic Blood Pressure","STANDING","131","mmHg","131",131,"mmHg",NA,NA,NA,1,"SCREENING 1",-7,"2012-11-23",-7,"AFTER STANDING FOR 3 MINUTES",817,"PT3M","PATIENT STANDING"
"CDISCPILOT01","VS","01-701-1115",65,"SYSBP","Systolic Blood Pressure","SUPINE","137","mmHg","137",137,"mmHg",NA,NA,NA,2,"SCREENING 2",-1,"2012-11-28",-2,"AFTER LYING DOWN FOR 5 MINUTES",815,"PT5M","PATIENT SUPINE"
"CDISCPILOT01","VS","01-701-1115",66,"SYSBP","Systolic Blood Pressure","STANDING","130","mmHg","130",130,"mmHg",NA,NA,NA,2,"SCREENING 2",-1,"2012-11-28",-2,"AFTER STANDING FOR 1 MINUTE",816,"PT1M","PATIENT STANDING"
"CDISCPILOT01","VS","01-701-1115",67,"SYSBP","Systolic Blood Pressure","STANDING","115","mmHg","115",115,"mmHg",NA,NA,NA,2,"SCREENING 2",-1,"2012-11-28",-2,"AFTER STANDING FOR 3 MINUTES",817,"PT3M","PATIENT STANDING"
"CDISCPILOT01","VS","01-701-1115",68,"SYSBP","Systolic Blood Pressure","SUPINE","130","mmHg","130",130,"mmHg",NA,NA,"Y",3,"BASELINE",1,"2012-11-30",1,"AFTER LYING DOWN FOR 5 MINUTES",815,"PT5M","PATIENT SUPINE"
"CDISCPILOT01","VS","01-701-1115",69,"SYSBP","Systolic Blood Pressure","STANDING","106","mmHg","106",106,"mmHg",NA,NA,"Y",3,"BASELINE",1,"2012-11-30",1,"AFTER STANDING FOR 1 MINUTE",816,"PT1M","PATIENT STANDING"
"CDISCPILOT01","VS","01-701-1115",70,"SYSBP","Systolic Blood Pressure","STANDING","110","mmHg","110",110,"mmHg",NA,NA,"Y",3,"BASELINE",1,"2012-11-30",1,"AFTER STANDING FOR 3 MINUTES",817,"PT3M","PATIENT STANDING"
"CDISCPILOT01","VS","01-701-1115",71,"SYSBP","Systolic Blood Pressure","SUPINE","144","mmHg","144",144,"mmHg",NA,NA,NA,3.5,"AMBUL ECG PLACEMENT",13,"2012-12-12",13,"AFTER LYING DOWN FOR 5 MINUTES",815,"PT5M","PATIENT SUPINE"
"CDISCPILOT01","VS","01-701-1115",72,"SYSBP","Systolic Blood Pressure","STANDING","120","mmHg","120",120,"mmHg",NA,NA,NA,3.5,"AMBUL ECG PLACEMENT",13,"2012-12-12",13,"AFTER STANDING FOR 1 MINUTE",816,"PT1M","PATIENT STANDING"
"CDISCPILOT01","VS","01-701-1115",73,"SYSBP","Systolic Blood Pressure","STANDING","116","mmHg","116",116,"mmHg",NA,NA,NA,3.5,"AMBUL ECG PLACEMENT",13,"2012-12-12",13,"AFTER STANDING FOR 3 MINUTES",817,"PT3M","PATIENT STANDING"
"CDISCPILOT01","VS","01-701-1115",74,"SYSBP","Systolic Blood Pressure","SUPINE","122","mmHg","122",122,"mmHg",NA,NA,NA,4,"WEEK 2",14,"2012-12-13",14,"AFTER LYING DOWN FOR 5 MINUTES",815,"PT5M","PATIENT SUPINE"
"CDISCPILOT01","VS","01-701-1115",75,"SYSBP","Systolic Blood Pressure","STANDING","119","mmHg","119",119,"mmHg",NA,NA,NA,4,"WEEK 2",14,"2012-12-13",14,"AFTER STANDING FOR 1 MINUTE",816,"PT1M","PATIENT STANDING"
"CDISCPILOT01","VS","01-701-1115",76,"SYSBP","Systolic Blood Pressure","STANDING","100","mmHg","100",100,"mmHg",NA,NA,NA,4,"WEEK 2",14,"2012-12-13",14,"AFTER STANDING FOR 3 MINUTES",817,"PT3M","PATIENT STANDING"
"CDISCPILOT01","VS","01-701-1115",77,"SYSBP","Systolic Blood Pressure","SUPINE","115","mmHg","115",115,"mmHg",NA,NA,NA,5,"WEEK 4",28,"2012-12-26",27,"AFTER LYING DOWN FOR 5 MINUTES",815,"PT5M","PATIENT SUPINE"
"CDISCPILOT01","VS","01-701-1115",78,"SYSBP","Systolic Blood Pressure","STANDING","98","mmHg","98",98,"mmHg",NA,NA,NA,5,"WEEK 4",28,"2012-12-26",27,"AFTER STANDING FOR 1 MINUTE",816,"PT1M","PATIENT STANDING"
"CDISCPILOT01","VS","01-701-1115",79,"SYSBP","Systolic Blood Pressure","STANDING","95","mmHg","95",95,"mmHg",NA,NA,NA,5,"WEEK 4",28,"2012-12-26",27,"AFTER STANDING FOR 3 MINUTES",817,"PT3M","PATIENT STANDING"
"CDISCPILOT01","VS","01-701-1115",80,"SYSBP","Systolic Blood Pressure","SUPINE","122","mmHg","122",122,"mmHg",NA,NA,NA,6,"AMBUL ECG REMOVAL",30,"2012-12-28",29,"AFTER LYING DOWN FOR 5 MINUTES",815,"PT5M","PATIENT SUPINE"
"CDISCPILOT01","VS","01-701-1115",81,"SYSBP","Systolic Blood Pressure","STANDING","96","mmHg","96",96,"mmHg",NA,NA,NA,6,"AMBUL ECG REMOVAL",30,"2012-12-28",29,"AFTER STANDING FOR 1 MINUTE",816,"PT1M","PATIENT STANDING"
"CDISCPILOT01","VS","01-701-1115",82,"SYSBP","Systolic Blood Pressure","STANDING","99","mmHg","99",99,"mmHg",NA,NA,NA,6,"AMBUL ECG REMOVAL",30,"2012-12-28",29,"AFTER STANDING FOR 3 MINUTES",817,"PT3M","PATIENT STANDING"
"CDISCPILOT01","VS","01-701-1115",83,"SYSBP","Systolic Blood Pressure","SUPINE","131","mmHg","131",131,"mmHg",NA,NA,NA,7,"WEEK 6",42,"2013-01-10",42,"AFTER LYING DOWN FOR 5 MINUTES",815,"PT5M","PATIENT SUPINE"
"CDISCPILOT01","VS","01-701-1115",84,"SYSBP","Systolic Blood Pressure","STANDING","107","mmHg","107",107,"mmHg",NA,NA,NA,7,"WEEK 6",42,"2013-01-10",42,"AFTER STANDING FOR 1 MINUTE",816,"PT1M","PATIENT STANDING"
"CDISCPILOT01","VS","01-701-1115",85,"SYSBP","Systolic Blood Pressure","STANDING","104","mmHg","104",104,"mmHg",NA,NA,NA,7,"WEEK 6",42,"2013-01-10",42,"AFTER STANDING FOR 3 MINUTES",817,"PT3M","PATIENT STANDING"
"CDISCPILOT01","VS","01-701-1115",86,"SYSBP","Systolic Blood Pressure","SUPINE","123","mmHg","123",123,"mmHg",NA,NA,NA,8,"WEEK 8",56,"2013-01-23",55,"AFTER LYING DOWN FOR 5 MINUTES",815,"PT5M","PATIENT SUPINE"
"CDISCPILOT01","VS","01-701-1115",87,"SYSBP","Systolic Blood Pressure","STANDING","113","mmHg","113",113,"mmHg",NA,NA,NA,8,"WEEK 8",56,"2013-01-23",55,"AFTER STANDING FOR 1 MINUTE",816,"PT1M","PATIENT STANDING"
"CDISCPILOT01","VS","01-701-1115",88,"SYSBP","Systolic Blood Pressure","STANDING","98","mmHg","98",98,"mmHg",NA,NA,NA,8,"WEEK 8",56,"2013-01-23",55,"AFTER STANDING FOR 3 MINUTES",817,"PT3M","PATIENT STANDING"
"CDISCPILOT01","VS","01-701-1115",89,"SYSBP","Systolic Blood Pressure","SUPINE","99","mmHg","99",99,"mmHg",NA,NA,NA,201,"RETRIEVAL",168,"2013-05-20",172,"AFTER LYING DOWN FOR 5 MINUTES",815,"PT5M","PATIENT SUPINE"
"CDISCPILOT01","VS","01-701-1115",90,"SYSBP","Systolic Blood Pressure","STANDING","99","mmHg","99",99,"mmHg",NA,NA,NA,201,"RETRIEVAL",168,"2013-05-20",172,"AFTER STANDING FOR 1 MINUTE",816,"PT1M","PATIENT STANDING"
"CDISCPILOT01","VS","01-701-1115",91,"SYSBP","Systolic Blood Pressure","STANDING","99","mmHg","99",99,"mmHg",NA,NA,NA,201,"RETRIEVAL",168,"2013-05-20",172,"AFTER STANDING FOR 3 MINUTES",817,"PT3M","PATIENT STANDING"
"CDISCPILOT01","VS","01-701-1115",92,"TEMP","Temperature",NA,"97.4","F","36.33",36.33,"C",NA,"ORAL CAVITY",NA,1,"SCREENING 1",-7,"2012-11-23",-7,NA,NA,NA,NA
"CDISCPILOT01","VS","01-701-1115",93,"TEMP","Temperature",NA,"97.2","F","36.22",36.22,"C",NA,"ORAL CAVITY",NA,2,"SCREENING 2",-1,"2012-11-28",-2,NA,NA,NA,NA
"CDISCPILOT01","VS","01-701-1115",94,"TEMP","Temperature",NA,"98.0","F","36.67",36.67,"C",NA,"ORAL CAVITY","Y",3,"BASELINE",1,"2012-11-30",1,NA,NA,NA,NA
"CDISCPILOT01","VS","01-701-1115",95,"TEMP","Temperature",NA,"97.4","F","36.33",36.33,"C",NA,"ORAL CAVITY",NA,3.5,"AMBUL ECG PLACEMENT",13,"2012-12-12",13,NA,NA,NA,NA
"CDISCPILOT01","VS","01-701-1115",96,"TEMP","Temperature",NA,"98.0","F","36.67",36.67,"C",NA,"ORAL CAVITY",NA,4,"WEEK 2",14,"2012-12-13",14,NA,NA,NA,NA
"CDISCPILOT01","VS","01-701-1115",97,"TEMP","Temperature",NA,"97.7","F","36.5",36.5,"C",NA,"ORAL CAVITY",NA,5,"WEEK 4",28,"2012-12-26",27,NA,NA,NA,NA
"CDISCPILOT01","VS","01-701-1115",98,"TEMP","Temperature",NA,"97.3","F","36.28",36.28,"C",NA,"ORAL CAVITY",NA,6,"AMBUL ECG REMOVAL",30,"2012-12-28",29,NA,NA,NA,NA
"CDISCPILOT01","VS","01-701-1115",99,"TEMP","Temperature",NA,"97.6","F","36.44",36.44,"C",NA,"ORAL CAVITY",NA,7,"WEEK 6",42,"2013-01-10",42,NA,NA,NA,NA
